acc_x,acc_y,acc_z,gyr_x,gyr_y,gyr_z,timestamp,label
-11.997612,-19.913069,-6.271588,128.800003,-12.46,0.63,1729429066803.0,0.0
2.809174,-24.452255,14.821144,800.940002,-71.68,93.379997,1729429066804.0,0.0
-11.873186,2.928815,-0.933201,519.539978,194.949997,-47.599998,1729429066805.0,0.0
-12.392428,-2.938386,-0.674776,-48.23,-2.87,62.510002,1729429066806.0,0.0
-2.325824,-16.194624,-16.764114,-294.700012,-141.190002,-20.93,1729429066826.0,0.0
-5.864808,-17.046469,-10.832308,112.349998,-18.9,-15.68,1729429066847.0,0.0
-9.839286,1.976472,-10.028319,236.600006,143.779999,-33.25,1729429066866.0,0.0
-11.25823,-5.496314,-6.022735,-146.160004,112.699997,-50.400002,1729429066886.0,0.0
-5.615955,-12.330215,-4.058227,-325.640015,59.43,-96.040001,1729429066911.0,0.0
-2.129612,-2.74696,4.835894,-109.410004,128.660004,-33.950001,1729429066926.0,0.0
4.342973,-7.412964,18.929621,-139.789993,41.720001,-36.75,1729429066946.0,0.0
4.809574,-12.272788,4.063013,-167.160004,-44.869999,-10.01,1729429066966.0,0.0
-5.771489,-13.722836,-2.624927,-125.580002,-58.099998,14.14,1729429066985.0,0.0
-0.282353,-9.298509,-4.189832,-65.800003,-78.260002,19.67,1729429067006.0,0.0
-5.529813,-7.264609,0.997807,26.32,-94.849998,14.63,1729429067027.0,0.0
-6.853044,-7.04447,-11.145767,-30.17,-129.919998,16.309999,1729429067047.0,0.0
-11.753544,-5.484349,-20.86302,-138.180008,-93.940002,3.71,1729429067066.0,0.0
-20.044674,-3.072384,-20.714666,-116.270004,25.690001,15.26,1729429067086.0,0.0
-3.096312,-5.221139,-13.574483,-48.439999,72.800003,-21.0,1729429067106.0,0.0
-8.181061,-2.768496,-11.873186,-86.309998,107.309998,-27.23,1729429067133.0,0.0
-6.613762,-5.685347,-9.365508,-141.960007,132.649994,-32.130001,1729429067146.0,0.0
1.562513,-7.829315,-1.557728,-65.660004,138.039993,6.16,1729429067166.0,0.0
1.617548,-9.075976,15.443277,-26.950001,92.610001,24.639999,1729429067187.0,0.0
1.794617,-14.579469,-0.004786,-60.41,-42.209999,22.82,1729429067206.0,0.0
-7.783852,-14.687144,-6.776474,-91.279999,-71.75,-16.17,1729429067226.0,0.0
-2.261217,-4.67079,-5.673382,-41.299999,-91.559998,-2.59,1729429067249.0,0.0
-2.388037,-3.256632,-9.956534,-51.450001,-121.239998,10.78,1729429067267.0,0.0
-6.721439,-1.801795,-13.143774,-145.740005,-107.239998,0.56,1729429067286.0,0.0
-11.406586,-2.127219,-14.969498,-227.430008,-72.239998,-29.75,1729429067308.0,0.0
-10.296316,4.972286,-12.952348,-181.160004,-18.059999,-41.299999,1729429067327.0,0.0
-4.520042,-2.29711,-8.863015,-125.230003,25.059999,-35.700001,1729429067348.0,0.0
-2.232504,-3.306881,-5.072784,-279.230011,22.049999,-75.32,1729429067369.0,0.0
-0.074178,-3.282953,-6.439085,-230.229996,3.99,-66.010002,1729429067386.0,0.0
-0.387637,-1.502693,-8.817552,-163.729996,-7.0,-37.52,1729429067407.0,0.0
-1.292124,0.392423,-7.702496,-119.0,-19.110001,-5.04,1729429067426.0,0.0
-6.367301,-7.728817,-7.420143,-53.830002,-25.059999,16.52,1729429067449.0,0.0
-7.192825,-8.4012,-10.612168,-61.740002,-30.450001,-14.49,1729429067470.0,0.0
-5.326423,-1.974079,-14.699109,3.92,-16.799999,-16.450001,1729429067489.0,0.0
-3.682554,-2.026721,-13.246667,140.350006,13.86,23.309999,1729429067510.0,0.0
-4.476971,-4.773681,-9.178867,230.720001,38.57,32.759998,1729429067528.0,0.0
-5.347959,0.677169,-7.465607,213.149994,47.880001,16.309999,1729429067549.0,0.0
-2.727818,-2.878566,-5.651847,178.360001,29.610001,24.5,1729429067567.0,0.0
-3.67059,-11.047661,-12.134004,257.670013,14.35,31.99,1729429067588.0,0.0
-6.367301,8.987441,-10.030712,270.829987,37.310001,21.0,1729429067609.0,0.0
-5.553742,-1.526621,-7.180861,209.509995,17.85,52.779999,1729429067628.0,0.0
-3.9338,-5.484349,-10.466206,24.15,-4.41,15.190001,1729429067648.0,0.0
-2.782853,-7.913064,-6.644868,217.490005,7.91,21.35,1729429067669.0,0.0
-6.556334,-12.720245,10.729417,337.890015,33.740002,51.029999,1729429067688.0,0.0
8.652447,1.981257,-7.207181,596.539978,-83.650002,31.43,1729429067708.0,0.0
-11.009377,-10.578669,-3.742374,674.869995,76.790001,24.639999,1729429067728.0,0.0
-19.161724,-6.025128,4.240082,341.25,84.980003,143.080002,1729429067750.0,0.0
-2.167897,-15.450456,0.521635,-25.83,-43.330002,-70.699997,1729429067769.0,0.0
-6.38405,-14.452648,-9.643075,-93.800003,-72.029999,1.54,1729429067789.0,0.0
-3.847659,2.909672,-9.207582,292.390015,21.42,-6.09,1729429067809.0,0.0
-8.38445,-6.025128,3.282953,70.209999,-24.219999,-15.26,1729429067830.0,0.0
-8.035098,-12.32543,-4.797609,-103.739998,-72.800003,-29.120001,1729429067853.0,0.0
-10.600205,0.394816,-12.693924,130.550003,42.139999,48.509998,1729429067870.0,0.0
-12.071791,-23.961727,-1.081556,18.76,-29.33,-70.629997,1729429067888.0,0.0
-10.585848,-4.74736,-4.852644,175.630005,73.150002,-5.88,1729429067913.0,0.0
-9.329616,-3.019742,-3.634698,67.900002,100.940002,-48.299999,1729429067928.0,0.0
-5.283352,-11.143374,-2.366502,-103.669998,64.120003,-38.779999,1729429067951.0,0.0
-2.565106,-7.018148,0.244068,-152.180008,97.790001,-31.219999,1729429067970.0,0.0
3.510271,-4.386044,10.38485,-239.820007,66.849998,-31.08,1729429067987.0,0.0
6.482157,-12.110075,6.266802,-384.230011,-26.74,-11.83,1729429068009.0,0.0
1.718047,-14.486149,-2.383251,-307.649994,-67.970001,-18.34,1729429068028.0,0.0
-3.371487,-13.552947,-5.161318,-184.240005,-67.269997,-31.43,1729429068048.0,0.0
-4.254438,-5.249853,-4.431508,-81.830002,-54.040001,-36.330002,1729429068070.0,0.0
-11.334801,-8.702696,4.603791,-204.190002,-59.010002,-51.73,1729429068088.0,0.0
-0.674776,-1.579263,-2.067399,-365.470001,-126.419998,-73.360001,1729429068107.0,0.0
-4.689932,-1.414158,-8.432307,-229.669998,-114.870003,-24.43,1729429068127.0,0.0
-11.313265,-7.377072,-9.193225,-86.590004,-74.830002,-12.67,1729429068148.0,0.0
-11.918649,-6.613762,-13.887943,-33.18,-51.099998,-5.04,1729429068168.0,0.0
-10.420743,0.981057,-16.168303,-42.630001,-18.41,-34.860001,1729429068189.0,0.0
-8.432307,-3.486342,-11.035697,-4.13,22.610001,-25.9,1729429068210.0,0.0
-3.04367,-3.345166,-8.953942,42.560001,23.52,-18.27,1729429068227.0,0.0
-3.28056,-7.91785,-8.295916,105.910004,42.139999,-2.24,1729429068248.0,0.0
-6.503692,-9.812965,-11.306087,280.279999,46.549999,-1.12,1729429068268.0,0.0
-12.480963,-11.420943,-13.866407,587.720032,94.360001,1.4,1729429068288.0,0.0
-14.608182,-12.926028,-11.665009,854.840027,134.610001,-53.41,1729429068309.0,0.0
-5.149354,3.254239,3.988836,928.130005,134.75,-84.419998,1729429068327.0,0.0
-0.942772,0.631705,7.192825,676.619995,92.82,-104.300003,1729429068349.0,0.0
1.842474,-3.672983,7.668997,402.290009,78.889999,-93.730003,1729429068573.0,0.0
3.742374,-5.268995,4.232903,352.309998,67.690002,-83.090004,1729429068574.0,0.0
0.287139,-3.799802,4.737789,337.399994,76.720001,-43.82,1729429068576.0,0.0
-1.014557,-4.457829,5.180461,278.880005,64.540001,-30.450001,1729429068577.0,0.0
-3.397808,-5.534599,7.771888,211.960007,72.449997,-11.97,1729429068580.0,0.0
-5.379066,-4.962714,8.099705,105.629997,63.349998,-11.06,1729429068583.0,0.0
-4.204189,-5.895915,7.161718,31.08,30.66,-6.93,1729429068587.0,0.0
-4.761717,-5.199604,6.173482,0.14,12.46,3.29,1729429068587.0,0.0
-4.596612,-3.505485,9.736395,-61.18,2.52,25.41,1729429068588.0,0.0
-4.426722,-0.878166,9.456435,-315.070007,-14.98,27.09,1729429068588.0,0.0
-6.417551,-4.809574,2.87378,-742.140015,-83.720001,27.370001,1729429068588.0,0.0
-3.847659,-7.37468,-1.677369,-1066.940063,-141.960007,-10.43,1729429068588.0,0.0
-2.847459,-10.877771,-7.259824,-1096.130005,-117.879997,-61.599998,1729429068607.0,0.0
-1.210768,-6.60419,-5.936593,-759.429993,-92.68,-89.32,1729429068643.0,0.0
-0.739382,-2.419144,-8.260024,-454.440002,-56.630001,-79.169998,1729429068647.0,0.0
-1.311267,-8.441878,-8.523234,-43.889999,-23.309999,-1.61,1729429068666.0,0.0
-3.570091,-8.02792,-4.266403,146.930008,-6.44,25.620001,1729429068687.0,0.0
-5.06082,-7.477571,-0.758525,240.449997,-14.91,51.099998,1729429068707.0,0.0
-10.229317,-8.772088,-1.753939,133.979996,-10.92,38.849998,1729429068727.0,0.0
-4.445865,-8.295916,-7.252645,-46.970001,-40.110001,5.25,1729429068804.0,0.0
-4.548756,-11.56451,-7.530212,-100.800003,-21.210001,-3.78,1729429068809.0,0.0
-6.78126,-8.772088,-6.565905,-44.73,-7.63,-15.33,1729429068811.0,0.0
-5.4006,-7.348359,-7.345965,62.650002,35.139999,-8.96,1729429068827.0,0.0
-3.201597,-3.785445,-0.897308,21.42,75.18,-11.83,1729429068849.0,0.0
-1.249053,-4.926822,0.875773,-154.979996,38.43,-6.72,1729429068867.0,0.0
2.285146,-10.473385,-0.744168,-201.110001,-20.23,-2.03,1729429068887.0,0.0
1.0002,-9.207582,-2.395216,-63.84,-45.779999,10.29,1729429068912.0,0.0
-3.452843,-7.542177,-2.002793,26.460001,-49.349998,21.700001,1729429068927.0,0.0
-3.538985,-6.396015,-3.797409,25.549999,-66.989998,30.309999,1729429068951.0,0.0
-4.783253,-8.618947,-8.030313,11.62,-68.389999,20.58,1729429068969.0,0.0
-6.45105,-9.693325,-8.219346,-38.5,-41.23,2.03,1729429068989.0,0.0
-7.271788,-9.889536,-9.533006,-84.419998,-21.49,-13.79,1729429069008.0,0.0
-5.666204,-6.817152,-9.949356,-71.050003,7.14,-22.33,1729429069028.0,0.0
-3.069991,-7.657032,-7.769495,20.02,34.09,-6.09,1729429069050.0,0.0
-5.515456,-6.738188,-5.178068,0.98,53.130001,-4.62,1729429069067.0,0.0
-4.058227,-8.037491,-2.213361,-130.690002,34.790001,-23.73,1729429069088.0,0.0
-2.572284,-8.425128,-3.48395,-157.5,4.97,-36.330002,1729429069109.0,0.0
-1.292124,-6.589834,-3.656233,-118.020004,-6.65,-36.330002,1729429069128.0,0.0
-0.189033,-8.286345,-5.819345,-91.699997,-15.68,-14.21,1729429069150.0,0.0
-3.318845,-8.592626,-7.192825,-93.029999,-15.05,-11.13,1729429069171.0,0.0
-3.120241,-5.285746,-8.453842,-92.190002,-16.940001,-5.6,1729429069189.0,0.0
-2.840281,-6.91765,-9.600004,-89.25,-17.5,1.61,1729429069209.0,0.0
-3.661019,-4.237689,-8.721838,-57.959999,-2.87,-1.75,1729429069232.0,0.0
-4.007978,-6.56112,-11.176874,-70.139999,3.22,-3.36,1729429069249.0,0.0
-4.173083,-4.852644,-11.174481,-29.049999,19.040001,-12.32,1729429069271.0,0.0
-5.455636,-4.177868,-7.484749,107.940002,46.41,-5.04,1729429069291.0,0.0
-5.979663,-5.979663,-6.453443,232.190002,46.759998,-0.7,1729429069309.0,0.0
-5.106283,-6.876972,-7.467999,354.130005,44.099998,10.43,1729429069330.0,0.0
-4.852644,-4.371687,-5.261817,339.570007,49.279999,1.12,1729429069349.0,0.0
-4.278367,-4.888536,-2.852244,218.330002,43.119999,-4.69,1729429069370.0,0.0
-3.833302,-8.609376,-5.376673,67.340004,22.469999,-15.26,1729429069389.0,0.0
-2.995814,-8.468199,-7.530212,-1.33,33.740002,-23.59,1729429069409.0,0.0
-1.375873,-7.125826,-6.668797,-33.040001,44.450001,-24.15,1729429069438.0,0.0
-0.39003,-6.24766,-3.383451,-13.72,46.900002,-12.25,1729429069460.0,0.0
-0.4666,-7.633104,-1.579263,36.540001,32.759998,0.14,1729429069479.0,0.0
-0.325424,-8.700303,-1.617548,74.690002,19.809999,3.57,1729429069489.0,0.0
-0.921237,-9.08794,0.062213,55.299999,2.17,5.88,1729429069509.0,0.0
-3.165704,-9.032906,0.198604,7.91,-13.51,2.45,1729429069529.0,0.0
-3.634698,-9.47797,-2.54357,-66.220001,-36.540001,-1.05,1729429069550.0,0.0
-3.144169,-9.415757,-4.398008,-78.470001,-37.799999,-7.7,1729429069568.0,0.0
-3.014957,-10.272388,-5.651847,-69.510002,-35.420002,-13.93,1729429069590.0,0.0
-3.639483,-7.721639,-4.405186,0.7,-31.43,-3.99,1729429069609.0,0.0
-3.723232,-7.948956,-4.584648,32.619999,-28.77,-2.66,1729429069634.0,0.0
-3.065206,-8.317451,-5.180461,6.09,-24.780001,-4.13,1729429069649.0,0.0
-2.656033,-8.006385,-6.668797,-23.66,-17.92,-7.7,1729429069668.0,0.0
-3.488736,-7.743174,-7.453642,-10.08,-7.63,-3.99,1729429069688.0,0.0
-4.118048,-7.530212,-6.132804,22.469999,2.66,1.19,1729429069709.0,0.0
-3.986443,-8.250452,-5.4341,33.389999,8.75,-0.84,1729429069729.0,0.0
-3.055635,-7.465607,-5.627919,21.84,16.870001,-4.48,1729429069751.0,0.0
-2.433501,-7.977671,-3.902694,8.26,11.55,-3.78,1729429069769.0,0.0
-2.969493,-7.709675,-3.139383,9.8,3.57,-1.47,1729429069788.0,0.0
-2.567499,-7.819745,-3.024528,5.74,-3.08,0.42,1729429069808.0,0.0
-2.292324,-9.111869,-4.496114,-14.28,-9.31,-1.47,1729429069831.0,0.0
-2.139183,-9.049655,-4.65404,-21.07,-8.26,-3.43,1729429069849.0,0.0
-2.445465,-8.695518,-4.74736,-16.450001,-9.8,-3.78,1729429069869.0,0.0
-3.416951,-8.817552,-4.520042,-17.01,-9.24,-2.8,1729429069890.0,0.0
-3.785445,-8.853443,-5.627919,-24.08,-5.95,-6.79,1729429069912.0,0.0
-3.211168,-8.55434,-4.965107,-17.219999,2.1,-5.18,1729429069929.0,0.0
-2.825923,-8.470592,-4.34058,4.48,2.45,-7.0,1729429069952.0,0.0
-2.529213,-7.881958,-4.134798,19.040001,1.68,-7.14,1729429069968.0,0.0
-2.24686,-8.41795,-5.134997,2.52,-3.57,-8.54,1729429069989.0,0.0
-2.56032,-8.408379,-6.199803,-10.71,-1.12,-8.54,1729429070011.0,0.0
-3.326023,-8.181061,-6.218946,-22.75,8.05,-8.4,1729429070029.0,0.0
-3.24706,-7.551748,-6.762117,-54.529999,17.290001,-15.47,1729429070049.0,0.0
-2.608176,-7.702496,-7.204789,-98.629997,24.710001,-26.809999,1729429070069.0,0.0
-2.469393,-8.829515,-6.379266,-88.480003,23.309999,-22.26,1729429070089.0,0.0
-2.54357,-8.006385,-5.726025,-60.200001,24.639999,-29.190001,1729429070109.0,0.0
-1.605584,-7.944171,-4.589434,-31.639999,17.57,-28.84,1729429070130.0,0.0
-1.818545,-7.609176,-2.900101,-1.54,10.22,-20.58,1729429070150.0,0.0
-1.844866,-8.068598,-3.395415,-1.05,-1.4,-19.18,1729429070169.0,0.0
-1.904687,-7.647461,-4.694718,-1.19,-9.38,-17.710001,1729429070188.0,0.0
-1.969293,-7.245467,-5.058427,-13.3,-14.28,-11.2,1729429070210.0,0.0
-1.191626,-8.020741,-6.283553,-14.91,-19.74,-4.97,1729429070230.0,0.0
-0.916451,-9.310472,-6.175875,65.449997,-22.960001,6.58,1729429070249.0,0.0
-2.132005,-7.432107,-5.295317,241.919998,-17.01,34.580002,1729429070269.0,0.0
-4.211368,-10.133603,-7.403394,489.230011,-18.620001,63.139999,1729429070288.0,0.0
-6.367301,-10.597812,-4.972286,659.820007,22.75,65.169998,1729429070308.0,0.0
-5.833702,-9.480364,1.024128,748.929993,82.18,25.41,1729429070330.0,0.0
-5.321638,-7.302894,2.754139,698.950012,108.57,-13.65,1729429070349.0,0.0
-2.120041,-9.444471,2.469393,604.799988,99.889999,-29.960001,1729429070370.0,0.0
-2.416751,-11.724831,4.175476,547.400024,108.779999,-67.129997,1729429070398.0,0.0
-2.895315,-4.809574,8.85823,492.23999,134.190002,-104.300003,1729429070410.0,0.0
-3.522235,-1.521835,8.599805,321.440002,103.529999,-117.25,1729429070428.0,0.0
-2.557927,-2.720639,8.188239,121.029999,48.720001,-97.720001,1729429070449.0,0.0
-2.68714,-1.9669,9.346365,46.27,20.719999,-64.120003,1729429070469.0,0.0
-2.737389,-1.756332,7.755138,39.549999,-1.47,-37.52,1729429070489.0,0.0
-2.718246,-1.933401,7.448857,36.68,-12.95,-18.059999,1729429070510.0,0.0
-3.007778,-1.387837,7.338787,45.639999,-1.96,-3.85,1729429070527.0,0.0
-3.888337,-2.720639,6.173482,16.52,5.88,-2.66,1729429070549.0,0.0
-3.842873,-5.9342,6.963113,5.46,7.0,5.6,1729429070569.0,0.0
-3.940979,-4.788038,8.451449,39.060001,22.610001,0.56,1729429070588.0,0.0
-3.771089,-3.436093,8.001599,22.610001,20.860001,-6.65,1729429070609.0,0.0
-3.232704,-4.603791,7.113862,-15.82,10.64,-1.68,1729429070629.0,0.0
-3.864408,-4.68754,7.101898,17.99,13.72,0.56,1729429070651.0,0.0
-4.173083,-5.804988,8.542377,41.650002,12.39,-0.63,1729429070669.0,0.0
-4.201797,-4.23051,7.977671,43.400002,14.98,-9.59,1729429070687.0,0.0
-3.795017,-4.713861,6.740582,17.99,9.38,-15.33,1729429070708.0,0.0
-3.668197,-5.041678,7.188039,26.530001,11.13,-18.34,1729429070728.0,0.0
-4.132405,-5.56092,8.673983,45.080002,10.57,-24.780001,1729429070751.0,0.0
-5.099105,-5.321638,10.186246,50.189999,7.49,-34.93,1729429070768.0,0.0
-5.166104,-5.587241,9.923036,34.09,0.21,-46.34,1729429070788.0,0.0
-2.364109,-0.445065,9.616754,15.89,-5.11,-50.330002,1729429070808.0,0.0
-4.871787,-8.516055,6.355337,-45.009998,-33.040001,-50.400002,1729429070829.0,0.0
-3.328416,-8.102098,5.498707,3.43,-6.51,-44.52,1729429070851.0,0.0
1.679761,4.481757,1.76351,-5.18,15.12,-53.27,1729429070868.0,0.0
5.245068,15.603597,4.091727,-46.060001,61.529999,-2.59,1729429070889.0,0.0
-11.327622,-2.081756,4.998606,-93.449997,11.69,75.459999,1729429070913.0,0.0
-6.652047,-2.632105,8.506484,-8.26,40.389999,88.199997,1729429070929.0,0.0
-5.644669,-7.783852,13.667803,27.299999,27.719999,76.019997,1729429070951.0,0.0
-3.065206,-4.13719,11.803794,-3.22,3.15,39.900002,1729429070969.0,0.0
-3.036492,-3.024528,8.901299,-38.779999,-11.76,36.330002,1729429070987.0,0.0
-4.945964,-4.027121,6.273981,-59.290001,-16.24,39.060001,1729429071007.0,0.0
-5.563312,-7.525427,6.025128,-8.33,-11.69,29.469999,1729429071029.0,0.0
-7.269395,-7.276574,9.233903,76.440002,3.15,2.87,1729429071050.0,0.0
-8.12124,-11.461621,10.150353,67.690002,-12.88,-31.99,1729429071069.0,0.0
-2.632105,-5.173282,9.559326,65.169998,-11.97,-61.670002,1729429071088.0,0.0
-1.722832,-2.79721,5.345565,11.62,-18.059999,-65.590004,1729429071108.0,0.0
-4.453043,-6.01077,4.701896,-3.15,-25.200001,-68.739998,1729429071129.0,0.0
0.775275,0.650848,6.74776,37.099998,0.35,-65.590004,1729429071151.0,0.0
4.931608,7.446464,4.259224,-24.15,18.27,-8.61,1729429071168.0,0.0
-8.678767,-5.118248,7.133004,-66.57,47.110001,44.450001,1729429071187.0,0.0
-7.267002,-2.971886,9.276974,-37.869999,37.240002,34.509998,1729429071216.0,0.0
-4.862216,-5.871986,9.927821,13.09,26.110001,44.099998,1729429071230.0,0.0
-4.402793,-6.800402,10.794022,8.19,16.940001,21.91,1729429071249.0,0.0
-3.314059,-2.811567,12.660425,20.65,10.22,9.24,1729429071268.0,0.0
-3.326023,0.301496,8.032705,-25.48,-13.23,21.35,1729429071287.0,0.0
-4.929214,-6.269196,4.505685,-50.82,-26.18,30.66,1729429071310.0,0.0
-5.955735,-7.056434,6.788438,33.32,-0.84,18.129999,1729429071329.0,0.0
-6.474977,-6.73101,9.21476,67.760002,3.71,-6.86,1729429071350.0,0.0
-6.101698,-11.040483,10.315458,48.439999,-8.75,-33.740002,1729429071368.0,0.0
-3.522235,-6.295516,9.741181,58.170002,-9.59,-59.920002,1729429071388.0,0.0
-7.334002,-8.578269,6.814759,15.12,-23.309999,-65.660004,1729429071410.0,0.0
-4.558327,-7.185646,7.209574,11.06,-23.59,-87.360001,1729429071428.0,0.0
-7.984849,5.20439,-3.878766,19.809999,4.2,-55.02,1729429071452.0,0.0
3.665804,9.887143,0.490529,-50.189999,59.990002,-50.610001,1729429071467.0,0.0
-13.890336,-11.002198,5.532206,-68.110001,46.970001,53.060001,1729429071487.0,0.0
-6.407979,-0.31346,12.717852,16.59,60.27,20.58,1729429071508.0,0.0
-4.852644,-3.304488,13.53859,1.89,18.83,42.77,1729429071527.0,0.0
-1.701297,-5.448457,11.286944,-48.509998,-0.77,29.33,1729429071549.0,0.0
-2.309074,-1.725225,10.856236,-5.18,2.73,34.509998,1729429071568.0,0.0
-4.307081,-0.502493,9.066404,-8.89,-1.61,45.779999,1729429071587.0,0.0
-6.209375,-4.012764,5.508278,-38.009998,-7.7,48.720001,1729429071607.0,0.0
-5.745167,-6.178268,6.235696,11.97,5.95,24.219999,1729429071627.0,0.0
-6.707082,-5.974878,8.860621,51.939999,10.71,10.64,1729429071649.0,0.0
-6.98465,-9.571291,9.623933,28.49,-5.39,-7.84,1729429071667.0,0.0
-4.785645,-9.832108,8.760124,31.99,-21.98,-47.529999,1729429071689.0,0.0
-3.596412,-6.34098,7.152147,45.009998,-17.710001,-77.559998,1729429071709.0,0.0
-3.895515,-7.149754,6.941578,17.360001,-27.02,-106.540001,1729429071728.0,0.0
3.826123,0.224925,6.848258,42.77,-13.37,-105.139999,1729429071799.0,0.0
2.792424,7.740781,2.15354,-12.32,13.65,-48.650002,1729429071800.0,0.0
-8.726624,-5.570491,6.01077,-102.620003,27.51,27.93,1729429071801.0,0.0
-6.800402,0.181855,9.566505,-56.07,20.51,20.65,1729429071809.0,0.0
-6.4343,-1.150948,10.829915,2.87,15.4,50.959999,1729429071840.0,0.0
-3.558127,-6.302694,11.956935,-34.299999,0.07,47.670002,1729429071850.0,0.0
-3.311667,-8.398808,10.729417,-19.25,-4.83,28.559999,1729429071870.0,0.0
-2.790031,-1.165305,11.377872,30.59,0.7,24.92,1729429071888.0,0.0
-4.261617,-0.993021,7.838887,-25.690001,-15.47,31.85,1729429071911.0,0.0
-5.283352,-6.881758,4.809574,-59.080002,-17.219999,33.950001,1729429071931.0,0.0
-6.297909,-5.982057,7.956135,17.360001,4.06,16.030001,1729429071948.0,0.0
-6.482157,-5.996413,10.394422,68.669998,4.27,-4.55,1729429071967.0,0.0
-5.032106,-9.334401,9.635897,20.23,-18.9,-26.950001,1729429071987.0,0.0
-4.378866,-7.647461,9.425328,33.32,-20.440001,-41.580002,1729429072008.0,0.0
-4.98425,-6.678369,8.054241,37.59,-28.559999,-64.75,1729429072026.0,0.0
-6.951149,-8.315059,7.042077,23.870001,-41.09,-87.639999,1729429072048.0,0.0
16.553547,7.353144,6.020342,21.42,-34.790001,-95.340004,1729429072067.0,0.0
1.342373,5.577669,-0.248854,-16.450001,-4.76,-39.759998,1729429072087.0,0.0
-1.237089,-7.860423,3.952943,-82.879997,31.01,-17.15,1729429072116.0,0.0
-4.807181,3.15374,11.779866,27.440001,71.260002,-0.91,1729429072130.0,0.0
-7.372287,-0.454636,11.425728,-63.420002,12.39,-4.76,1729429072147.0,0.0
-4.225725,-1.555335,11.413764,-109.900002,-7.28,38.849998,1729429072168.0,0.0
-1.122234,-5.941379,8.472985,-95.410004,-34.860001,34.720001,1729429072187.0,0.0
-0.875773,-6.558727,6.699903,-19.530001,-27.09,30.799999,1729429072213.0,0.0
-1.804188,-1.708475,8.779266,51.869999,-0.91,25.48,1729429072227.0,0.0
-3.701697,-1.021735,8.652447,14.49,3.15,28.210001,1729429072247.0,0.0
-5.314459,-5.601598,6.072984,-32.130001,-1.54,36.049999,1729429072267.0,0.0
-6.211767,-6.245267,7.257431,0.7,5.67,28.700001,1729429072288.0,0.0
-6.635297,-6.02752,9.463614,79.660004,11.97,3.22,1729429072308.0,0.0
-8.082954,-11.440084,10.301102,51.52,-10.36,-17.85,1729429072334.0,0.0
-4.48415,-8.800802,11.923435,57.260002,-19.950001,-57.330002,1729429072356.0,0.0
-5.221139,-8.786445,8.898908,12.46,-35.700001,-72.590004,1729429072368.0,0.0
2.086541,-4.785645,4.194618,-33.32,-46.759998,-92.260002,1729429072386.0,0.0
-2.730211,1.272982,3.912265,42.279999,-3.71,16.1,1729429072408.0,0.0
2.364109,3.708875,1.584049,-44.450001,30.66,-49.77,1729429072426.0,0.0
-4.713861,4.634897,7.49432,-26.32,49.279999,23.66,1729429072449.0,0.0
-9.049655,-4.721039,8.420342,-86.169998,34.650002,39.060001,1729429072468.0,0.0
-4.328616,-5.63749,8.54477,-84.209999,19.6,41.09,1729429072571.0,0.0
-3.294917,-2.885744,11.243874,6.58,20.719999,45.57,1729429072571.0,0.0
-3.041277,-4.728218,10.375278,-0.35,4.41,45.150002,1729429072571.0,0.0
-2.175076,-2.861816,9.590433,6.79,6.44,46.830002,1729429072572.0,0.0
-4.493721,-1.775474,8.650054,3.78,4.34,57.75,1729429072572.0,0.0
-5.647062,-5.290531,6.206983,-26.18,0.56,52.43,1729429072667.0,0.0
-6.78126,-7.65464,6.238089,12.11,13.09,36.049999,1729429072668.0,0.0
-6.941578,-6.065805,9.796216,70.07,24.08,15.26,1729429072668.0,0.0
-6.147161,-10.066606,10.607382,54.950001,-6.65,-10.22,1729429072668.0,0.0
-6.388836,-9.269794,10.459028,61.040001,-19.389999,-43.119999,1729429072668.0,0.0
-5.355137,-6.766902,8.913264,50.75,-34.09,-65.029999,1729429072685.0,0.0
-4.570292,-3.816552,7.293324,22.68,-44.029999,-70.559998,1729429072706.0,0.0
-3.605984,-6.355337,7.944171,5.88,-56.84,-88.059998,1729429072725.0,0.0
-2.845066,-0.792024,7.896315,43.259998,-53.27,-80.150002,1729429072746.0,0.0
4.039084,6.76451,2.694318,9.8,-38.080002,-39.48,1729429072766.0,0.0
1.024128,0.854238,-2.478964,-95.830002,13.09,-17.290001,1729429072785.0,0.0
-7.896315,-9.102298,3.665804,-73.010002,54.18,35.700001,1729429072806.0,0.0
-4.749753,0.131605,9.803394,23.940001,79.029999,9.17,1729429072826.0,0.0
-6.879365,-1.813759,13.548162,17.08,56.279999,47.670002,1729429072846.0,0.0
-3.565305,-6.360123,13.208381,-59.220001,21.77,43.400002,1729429072865.0,0.0
-3.574877,-6.087341,11.504691,-28.210001,9.1,38.009998,1729429072886.0,0.0
-2.945565,-2.208575,11.124231,21.07,5.25,36.330002,1729429072908.0,0.0
-4.12044,-1.572084,8.683553,-3.78,-2.31,37.52,1729429072926.0,0.0
-4.871787,-4.280759,6.520442,-35.07,-3.99,37.029999,1729429072950.0,0.0
-5.283352,-6.719046,7.013363,20.370001,12.81,18.059999,1729429072966.0,0.0
-5.814559,-4.862216,9.140583,65.660004,19.040001,4.9,1729429072987.0,0.0
-5.276174,-4.682754,9.159724,40.18,4.83,-3.5,1729429073007.0,0.0
-4.419543,-5.020142,8.032705,3.29,-9.38,-9.03,1729429073026.0,0.0
-4.244867,-4.802395,6.948757,-7.63,-13.72,-13.02,1729429073048.0,0.0
-4.4339,-4.981857,6.613762,4.55,-12.25,-12.74,1729429073067.0,0.0
-4.366901,-3.897908,8.094919,22.4,-8.33,-14.0,1729429073086.0,0.0
-5.388636,-4.744967,9.284152,21.98,-11.69,-17.57,1729429073114.0,0.0
-6.02752,-7.984849,10.758131,13.79,-20.299999,-31.219999,1729429073127.0,0.0
-5.721239,-8.049455,11.691331,3.71,-31.710001,-60.48,1729429073151.0,0.0
-4.649254,-10.392029,7.645068,-26.880001,-69.160004,-112.419998,1729429073167.0,0.0
-11.830115,3.474378,-2.620141,-10.36,-56.279999,12.53,1729429073186.0,0.0
-0.122034,0.09332,5.412565,-34.439999,12.53,-108.360001,1729429073206.0,0.0
-5.190032,6.477371,7.690532,-7.84,-12.88,-43.259998,1729429073226.0,0.0
-2.608176,7.063612,8.078169,-66.220001,-19.74,-12.18,1729429073256.0,0.0
-2.423929,0.588634,7.618747,-139.789993,-49.279999,39.34,1729429073267.0,0.0
-2.294717,1.911865,9.824929,-79.169998,-24.92,47.810001,1729429073286.0,0.0
-3.553342,-5.441278,8.513663,-163.729996,-51.869999,67.970001,1729429073308.0,0.0
-3.326023,-6.965507,8.343772,-154.559998,-46.970001,50.889999,1729429073326.0,0.0
-4.187439,-3.323631,9.305687,-111.510002,-36.470001,58.939999,1729429073350.0,0.0
-5.685347,-1.684547,9.162118,-130.899994,-57.959999,93.449997,1729429073367.0,0.0
-5.125426,-4.974678,8.279166,-182.979996,-96.809998,107.099998,1729429073388.0,0.0
-3.878766,-9.379865,5.960521,-202.440002,-108.5,98.07,1729429073407.0,0.0
-1.945365,-10.760524,3.364309,-211.050003,-96.739998,68.529999,1729429073426.0,0.0
-1.641476,-11.85165,4.268795,-230.649994,-73.290001,46.619999,1729429073447.0,0.0
-2.117648,-13.864014,3.330809,-282.029999,-67.830002,16.870001,1729429073466.0,0.0
-0.150748,-14.493326,-0.842274,-256.130005,-46.830002,-23.450001,1729429073486.0,0.0
0.284746,-12.315859,-1.29691,-119.419998,7.77,-35.209999,1729429073506.0,0.0
-1.911865,-6.367301,2.065006,-47.040001,40.529999,-50.470001,1729429073641.0,0.0
-1.622334,-5.599205,1.579263,-73.43,56.349998,-43.610001,1729429073642.0,0.0
-1.572084,-6.652047,-0.294317,-134.399994,75.669998,-21.98,1729429073647.0,0.0
-3.809374,-9.631111,0.129212,-156.869995,63.0,-2.8,1729429073648.0,0.0
-2.823531,-8.748159,1.643869,-102.620003,50.68,17.01,1729429073652.0,0.0
-3.333202,-7.41775,4.177868,18.34,41.790001,28.630001,1729429073660.0,0.0
-3.744767,-6.690332,5.113462,157.080002,42.490002,30.1,1729429073666.0,0.0
-4.249653,-7.587641,7.771888,31.5,-0.35,26.6,1729429073748.0,0.0
-3.76391,-9.032906,3.761517,-46.27,-15.4,21.77,1729429073749.0,0.0
-3.069991,-8.396415,2.663212,-64.959999,-11.55,22.33,1729429073750.0,0.0
-3.416951,-9.449257,1.619941,-49.279999,-19.18,25.34,1729429073752.0,0.0
-3.160919,-9.643075,1.316052,22.610001,-15.12,28.42,1729429073766.0,0.0
-5.04407,-10.064213,2.143969,86.590004,-1.96,26.880001,1729429073785.0,0.0
-5.673382,-10.638489,3.479164,102.690002,10.71,14.14,1729429073805.0,0.0
-7.898707,-8.776874,3.914658,29.469999,26.950001,-8.89,1729429073826.0,0.0
-7.582855,-10.267602,1.07677,-106.959999,29.049999,-26.67,1729429073848.0,0.0
-5.766702,-16.874186,0.045464,-129.570007,33.529999,-62.02,1729429073865.0,0.0
-4.677969,-13.60559,-1.840081,-100.309998,63.560001,-88.340004,1729429073884.0,0.0
-1.256232,-10.987842,-3.108276,-68.529999,62.299999,-105.559998,1729429073908.0,0.0
1.844866,-1.579263,5.053641,74.129997,57.68,-62.09,1729429073925.0,0.0
0.442672,5.532206,10.107283,131.949997,39.27,-25.549999,1729429073949.0,0.0
-9.58804,-14.971891,9.276974,43.189999,11.2,36.330002,1729429073971.0,0.0
-3.074777,-8.860621,6.204589,-4.41,-26.809999,17.15,1729429073986.0,0.0
-2.337788,-8.898908,2.634498,-28.280001,-41.439999,16.940001,1729429074006.0,0.0
-2.256432,-10.425529,1.87358,-19.040001,-36.049999,21.42,1729429074025.0,0.0
-1.519442,-8.281559,1.098306,11.2,-30.73,25.690001,1729429074048.0,0.0
-2.708675,-7.635497,2.500499,63.630001,-21.84,35.139999,1729429074065.0,0.0
-4.139583,-8.9683,3.09392,58.310001,-25.690001,31.85,1729429074086.0,0.0
-4.41715,-9.410972,3.031706,42.139999,-30.309999,28.84,1729429074107.0,0.0
-5.838487,-12.646068,3.531806,27.02,-30.799999,20.23,1729429074127.0,0.0
-5.096712,-10.281959,2.062613,10.71,-22.469999,-0.63,1729429074148.0,0.0
-4.912465,-10.152746,2.766103,-6.09,-10.99,-10.64,1729429074165.0,0.0
-5.575277,-9.973285,2.469393,-56.209999,-2.1,-19.530001,1729429074185.0,0.0
-6.642475,-13.244273,2.321038,-131.809998,9.03,-25.620001,1729429074206.0,0.0
-4.833502,-14.304294,-1.258625,-154.279999,26.040001,-67.830002,1729429074225.0,0.0
-2.845066,-12.110075,-2.136791,-128.029999,51.029999,-89.879997,1729429074247.0,0.0
1.543371,-0.823131,-1.533799,-28.35,56.98,-73.779999,1729429074268.0,0.0
1.847259,-0.902094,5.106283,74.410004,44.380001,-30.799999,1729429074286.0,0.0
-6.108876,-14.08894,9.35833,48.509998,-29.960001,5.95,1729429074307.0,0.0
-0.098106,-6.943972,4.352544,-8.54,-36.049999,-2.1,1729429074326.0,0.0
-1.90708,-7.80778,1.507478,-51.59,-39.689999,5.88,1729429074346.0,0.0
-1.222732,-8.044669,0.375673,1.19,-34.299999,18.9,1729429074366.0,0.0
-2.65364,-9.370294,1.696511,52.920002,-32.060001,36.959999,1729429074385.0,0.0
-2.435893,-8.090133,3.07717,68.18,-26.67,43.889999,1729429074406.0,0.0
-4.063013,-9.856036,4.110869,76.090004,-29.82,41.02,1729429074425.0,0.0
-4.453043,-8.037491,3.68734,72.029999,-30.1,36.470001,1729429074446.0,0.0
-4.881358,-9.303294,2.160719,43.959999,-30.24,30.799999,1729429074465.0,0.0
-5.60399,-14.208582,3.773481,9.38,-27.93,22.190001,1729429074486.0,0.0
-7.166504,-13.174881,3.330809,-47.880001,1.12,-13.93,1729429074505.0,0.0
-6.276374,-10.468598,2.285146,-160.160004,32.060001,-30.66,1729429074524.0,0.0
-4.914857,-12.863814,-2.361716,-269.429993,30.309999,-77.349998,1729429074545.0,0.0
-3.59402,-13.636696,-5.728417,-200.759995,47.389999,-84.279999,1729429074564.0,0.0
1.87358,-2.084148,-5.941379,-3.43,54.880001,-91.769997,1729429074585.0,0.0
7.243074,12.354142,-0.157926,163.800003,45.150002,-19.809999,1729429074606.0,0.0
0.253639,-13.545769,11.499906,151.830002,11.69,36.330002,1729429074626.0,0.0
-1.01695,-7.846066,3.601198,-0.91,-38.43,12.25,1729429074649.0,0.0
-1.710868,-8.556733,-0.418744,-50.049999,-39.689999,9.45,1729429074666.0,0.0
-1.521835,-7.156933,0.72024,39.830002,-15.4,29.049999,1729429074686.0,0.0
-2.244468,-7.573284,3.09392,77.07,-14.98,46.619999,1729429074709.0,0.0
-4.436293,-12.217752,3.218346,63.490002,-25.34,40.040001,1729429074726.0,0.0
-4.07737,-8.55434,2.400001,66.779999,-25.27,26.530001,1729429074748.0,0.0
-5.443672,-10.368099,2.414358,42.84,-14.77,24.5,1729429074766.0,0.0
-4.926822,-12.318252,1.488336,-6.86,-15.33,8.4,1729429074785.0,0.0
-5.283352,-9.571291,1.328017,-27.299999,-1.19,-18.059999,1729429074806.0,0.0
-6.453443,-11.988041,1.299303,-72.519997,22.540001,-20.93,1729429074825.0,0.0
-4.321437,-12.153147,0.143569,-113.260002,29.82,-62.09,1729429074846.0,0.0
-3.744767,-8.449057,-0.287139,-114.449997,58.029999,-73.5,1729429074866.0,0.0
-0.074178,-8.039884,-1.20359,-116.340004,41.02,-62.860001,1729429074888.0,0.0
2.9671,-5.213961,-1.332802,-23.59,22.960001,-27.65,1729429074908.0,0.0
3.443272,-10.593026,11.540584,156.800003,20.58,11.76,1729429074925.0,0.0
-2.919244,-8.757731,8.958728,58.380001,-25.549999,-9.45,1729429074948.0,0.0
-1.37348,-8.154739,2.033899,-61.040001,-26.460001,9.31,1729429074965.0,0.0
-1.330409,-8.712267,-1.56012,-63.700001,-34.299999,26.32,1729429074985.0,0.0
-2.495714,-9.49472,-0.057428,45.220001,-14.0,49.700001,1729429075006.0,0.0
-2.206182,-9.200402,2.340181,85.260002,-10.57,47.599998,1729429075024.0,0.0
-2.727818,-8.879765,3.713661,107.590004,-8.54,49.420002,1729429075047.0,0.0
-3.617948,-9.391829,4.216154,83.720001,-19.110001,44.52,1729429075065.0,0.0
-4.35733,-10.035499,2.414358,42.209999,-19.6,42.0,1729429075085.0,0.0
-5.197211,-12.552748,2.897708,13.58,-17.5,28.07,1729429075106.0,0.0
-5.893522,-14.282759,3.656233,6.23,-9.59,8.82,1729429075126.0,0.0
-5.395815,-7.513463,1.617548,-22.26,10.36,-12.46,1729429075147.0,0.0
-6.149554,-9.88475,-0.722632,-113.610001,16.59,-15.05,1729429075166.0,0.0
-4.608576,-16.613367,-1.938186,-112.980003,25.48,-42.139999,1729429075185.0,0.0
-5.821737,-13.22513,-0.442672,10.43,58.869999,-54.950001,1729429075206.0,0.0
-3.268596,-12.473784,3.139383,12.25,48.720001,-73.989998,1729429075225.0,0.0
3.783052,6.798009,-0.27996,-2.87,37.029999,-64.75,1729429075246.0,0.0
1.878366,-11.152946,18.484554,160.160004,-5.6,-13.86,1729429075265.0,0.0
-2.474179,-8.480164,7.719246,31.780001,-51.240002,-9.1,1729429075285.0,0.0
-2.208575,-9.729217,0.866202,-92.400002,-30.380001,0.56,1729429075306.0,0.0
-1.765903,-12.172288,-0.165105,-32.549999,-16.73,24.99,1729429075325.0,0.0
-2.222932,-8.659625,2.251646,67.830002,0.91,30.870001,1729429075347.0,0.0
-2.63689,-8.094919,1.902294,63.209999,-5.6,27.23,1729429075365.0,0.0
-1.512264,-6.513263,1.385444,48.439999,-4.83,28.210001,1729429075385.0,0.0
-2.742175,-8.128418,2.531606,65.519997,-8.47,36.540001,1729429075406.0,0.0
-4.113262,-9.016156,2.866602,64.889999,-17.57,40.950001,1729429075425.0,0.0
-4.551149,-10.648061,2.854637,51.170002,-9.1,36.259998,1729429075446.0,0.0
-7.886744,-11.710474,3.996014,-30.870001,22.190001,2.52,1729429075465.0,0.0
-2.40718,-9.918249,-0.227318,-111.300003,-1.05,8.05,1729429075485.0,0.0
-11.313265,-10.674382,-1.931008,-94.5,20.790001,-22.120001,1729429075505.0,0.0
-2.945565,-17.185251,-3.775874,-120.330002,28.98,-64.260002,1729429075525.0,0.0
-3.072384,-11.629118,-2.411965,-19.74,72.449997,-72.449997,1729429075546.0,0.0
-1.823331,-0.969093,2.053042,44.799999,82.459999,-96.18,1729429075564.0,0.0
3.285345,0.892523,6.151947,24.99,39.41,-36.889999,1729429075585.0,0.0
4.577469,-0.22014,10.109675,-4.83,1.26,-0.84,1729429075605.0,0.0
-2.029114,-13.167704,8.472985,-63.490002,-37.66,12.39,1729429075625.0,0.0
-0.739382,-9.836893,1.057628,-96.18,-41.790001,6.72,1729429075648.0,0.0
-1.464408,-11.129018,-0.887737,-67.269997,-36.049999,21.49,1729429075665.0,0.0
-0.066999,-6.644868,-1.024128,9.17,-21.139999,33.110001,1729429075684.0,0.0
-2.897708,-8.733803,1.787439,100.029999,-4.9,59.150002,1729429075713.0,0.0
-3.962514,-9.88475,3.062813,92.120003,-14.21,45.5,1729429075724.0,0.0
-5.221139,-11.918649,4.108476,85.330002,-21.629999,34.369999,1729429075747.0,0.0
-5.498707,-9.80818,3.802195,73.290001,-8.05,29.960001,1729429075765.0,0.0
-5.694918,-11.4353,2.139183,-6.23,-7.0,10.29,1729429075784.0,0.0
-5.816952,-9.135797,-0.31346,-89.669998,2.66,-16.030001,1729429075805.0,0.0
-5.960521,-12.162716,-1.306481,-111.370003,33.389999,-21.139999,1729429075826.0,0.0
-4.364508,-14.263616,-1.74676,-139.369995,32.130001,-54.740002,1729429075846.0,0.0
-3.558127,-14.249258,-3.194418,-105.840004,57.260002,-84.209999,1729429075865.0,0.0
-0.799203,-5.230711,-4.027121,-9.66,62.02,-94.919998,1729429075885.0,0.0
7.503892,4.079762,0.105284,150.009995,56.91,-37.310001,1729429075908.0,0.0
-0.416351,-7.4345,20.918056,267.26001,41.02,29.540001,1729429075924.0,0.0
-3.113062,-4.448257,12.227324,27.16,-37.099998,11.34,1729429075946.0,0.0
-4.347759,-10.937593,-1.624727,-156.520004,-54.18,21.49,1729429075965.0,0.0
-2.404787,-14.366508,-3.397808,-81.480003,-45.360001,34.93,1729429075986.0,0.0
-2.62732,-9.446864,-0.586242,74.900002,-8.12,42.139999,1729429076005.0,0.0
-2.56032,-6.762117,1.995614,111.370003,-2.66,40.880001,1729429076024.0,0.0
-3.005385,-8.173882,3.383451,103.32,-11.34,43.330002,1729429076046.0,0.0
-3.945765,-9.686146,4.204189,76.440002,-17.710001,36.889999,1729429076065.0,0.0
-4.529613,-10.25803,2.931208,33.880001,-19.809999,29.82,1729429076084.0,0.0
-4.280759,-10.832308,2.208575,-5.39,-19.460001,20.860001,1729429076105.0,0.0
-4.438686,-11.535798,1.744368,-25.83,-14.63,8.89,1729429076124.0,0.0
-4.721039,-10.676775,-0.026321,-41.299999,-1.68,-7.56,1729429076147.0,0.0
-4.005585,-9.75793,-0.308674,-48.369999,13.440001,-10.71,1729429076165.0,0.0
-3.76391,-11.296515,0.112463,-50.82,21.91,-17.710001,1729429076186.0,0.0
-5.716454,-13.519447,0.490529,-76.160004,26.74,-29.960001,1729429076205.0,0.0
-7.975278,-14.589039,-1.045663,-128.660004,50.400002,-72.590004,1729429076224.0,0.0
-3.409772,-12.698709,-6.443871,-156.729996,85.190002,-98.769997,1729429076246.0,0.0
7.683353,-7.147361,-4.436293,-5.67,75.389999,-70.769997,1729429076266.0,0.0
7.874779,6.608976,17.230717,301.769989,59.779999,-9.31,1729429076285.0,0.0
-1.378266,-9.882358,5.386244,54.599998,-53.060001,-12.53,1729429076306.0,0.0
-1.665405,-6.532406,1.301696,-81.690002,-49.91,-19.879999,1729429076324.0,0.0
-2.37368,-7.202396,-0.133998,-79.940002,-32.48,0.91,1729429076345.0,0.0
-3.026921,-8.894121,0.411566,-68.529999,-37.240002,16.59,1729429076365.0,0.0
-2.462214,-8.939585,1.06002,-39.060001,-40.389999,15.12,1729429076384.0,0.0
-2.89053,-8.846266,2.847459,-40.740002,-37.939999,12.74,1729429076404.0,0.0
-4.163511,-8.370094,2.108077,-108.57,-46.549999,2.87,1729429076428.0,0.0
-4.304688,-9.88475,-0.492921,-199.430008,-59.920002,-13.79,1729429076447.0,0.0
-3.285345,-10.664811,-2.699104,-251.790009,-65.519997,-27.58,1729429076464.0,0.0
-2.718246,-9.336794,-3.352344,-240.029999,-59.290001,-34.09,1729429076485.0,0.0
-1.4668,-8.815158,-6.252446,-192.710007,-57.049999,-33.740002,1729429076505.0,0.0
-0.90688,-12.780065,-6.508478,-105.279999,-53.27,-38.779999,1729429076525.0,0.0
0.753739,-9.908678,-3.158526,85.68,-46.27,-24.99,1729429076546.0,0.0
-1.995614,-4.886144,1.696511,174.930008,-9.73,-1.33,1729429076564.0,0.0
-3.201597,-5.673382,0.679562,8.75,-29.75,5.04,1729429076584.0,0.0
-1.710868,-9.458827,-2.533999,-180.949997,-50.889999,4.27,1729429076615.0,0.0
-1.861616,-9.901501,-4.685147,-236.529999,-31.710001,8.19,1729429076625.0,0.0
-0.937986,-7.264609,-6.783652,-243.460007,-23.59,3.57,1729429076645.0,0.0
-1.294517,-6.427122,-6.716653,-209.369995,-2.66,17.15,1729429076665.0,0.0
-0.538385,-9.829715,-8.159525,-216.020004,-12.81,14.42,1729429076684.0,0.0
0.315853,-13.103097,-5.69731,-77.629997,-10.71,25.48,1729429076704.0,0.0
0.567099,-9.099905,-4.512863,26.110001,0.63,4.55,1729429076724.0,0.0
-1.519442,-7.592427,-4.752146,-4.27,-0.49,13.3,1729429076808.0,0.0
-1.904687,-10.719845,-6.793223,-29.049999,-6.44,19.879999,1729429076814.0,0.0
-2.012364,-10.437491,-5.718846,15.26,3.22,18.34,1729429076817.0,0.0
-2.842674,-8.55434,-3.471986,59.920002,12.53,16.24,1729429076819.0,0.0
-3.759124,-10.033106,-3.974478,36.189999,2.94,12.46,1729429076825.0,0.0
-2.467,-9.056834,-4.811966,20.65,-1.75,3.92,1729429076845.0,0.0
-2.787638,-9.272188,-5.422136,14.7,1.4,0.28,1729429076864.0,0.0
-2.955136,-8.310273,-5.302495,27.16,6.37,-0.07,1729429076884.0,0.0
-2.825923,-7.781459,-5.070391,40.040001,8.12,0.7,1729429076907.0,0.0
-2.742175,-7.578069,-5.307281,42.490002,7.49,1.61,1729429076924.0,0.0
-3.067599,-8.025528,-5.912664,24.639999,9.17,0.14,1729429076947.0,0.0
-3.751946,-9.171689,-8.573483,13.86,15.54,-3.29,1729429076964.0,0.0
-3.443272,-6.742974,-7.551748,20.51,32.689999,-2.94,1729429076984.0,0.0
-4.211368,-8.803195,-5.694918,-60.760002,63.560001,6.79,1729429077004.0,0.0
-5.17089,-12.734602,-7.077969,-164.149994,80.5,-28.0,1729429077024.0,0.0
-0.894916,-8.496914,-7.185646,-47.880001,79.519997,-32.689999,1729429077045.0,0.0
-0.289532,-0.327817,0.11007,61.389999,84.699997,-13.3,1729429077064.0,0.0
4.716253,-3.448057,4.503292,-8.82,40.389999,-7.14,1729429077084.0,0.0
2.07697,-10.372886,2.608176,110.25,0.91,32.619999,1729429077104.0,0.0
-5.553742,-12.693924,-1.48355,-5.95,-31.15,3.22,1729429077124.0,0.0
0.277567,-9.300901,-7.128219,-56.139999,-47.389999,-25.34,1729429077145.0,0.0
-0.935594,-8.602197,-6.396015,13.02,-29.75,-8.47,1729429077164.0,0.0
-2.823531,-8.066205,-6.195018,50.470001,-28.42,8.47,1729429077184.0,0.0
-0.753739,-7.472785,-4.838287,61.040001,-33.459999,7.84,1729429077206.0,0.0
-2.574677,-7.338787,-2.897708,35.490002,-38.849998,8.05,1729429077224.0,0.0
-2.438286,-7.987241,-2.397608,-13.16,-48.93,4.69,1729429077245.0,0.0
-4.914857,-10.188639,-4.776074,-44.59,-58.099998,-1.75,1729429077265.0,0.0
-4.309474,-9.956534,-7.73121,-8.33,-48.02,-0.21,1729429077284.0,0.0
-5.362316,-9.578469,-9.793823,-12.53,-14.91,-3.29,1729429077306.0,0.0
-4.515256,-7.496714,-11.229517,-93.590004,44.73,-14.0,1729429077324.0,0.0
-1.014557,-8.65484,-10.655239,-112.980003,57.049999,-15.61,1729429077345.0,0.0
-3.014957,-5.386244,-9.298509,-90.370003,94.010002,-16.450001,1729429077364.0,0.0
-0.251246,-8.204988,0.043071,-49.84,90.580002,-16.450001,1729429077384.0,0.0
0.990629,-1.931008,3.811767,74.269997,67.970001,23.17,1729429077404.0,0.0
7.893922,-10.973484,4.488935,42.279999,-7.63,40.25,1729429077424.0,0.0
-4.668397,-14.165509,1.024128,29.120001,-26.25,0.84,1729429077445.0,0.0
-3.414558,-9.317651,-6.762117,-39.619999,-58.310001,-4.48,1729429077464.0,0.0
0.490529,-9.516255,-8.4347,-49.139999,-54.32,-11.34,1729429077484.0,0.0
-3.306881,-9.202796,-7.9681,19.460001,-35.77,-0.77,1729429077504.0,0.0
-1.730011,-7.62114,-7.37468,58.869999,-29.33,4.13,1729429077524.0,0.0
-1.567299,-6.597012,-4.945964,69.300003,-25.27,4.13,1729429077546.0,0.0
-2.825923,-6.297909,-4.350152,57.959999,-23.940001,6.09,1729429077564.0,0.0
-4.194618,-8.963513,-3.859623,-2.17,-26.040001,-2.59,1729429077585.0,0.0
-3.134598,-9.092726,-7.056434,-20.93,-32.830002,-5.04,1729429077604.0,0.0
-3.498307,-8.300702,-7.513463,3.22,-18.27,-2.59,1729429077624.0,0.0
-2.924029,-7.597212,-10.559525,7.84,-2.66,-1.96,1729429077647.0,0.0
-4.993821,-7.759924,-11.566904,-95.059998,49.279999,-5.67,1729429077664.0,0.0
-2.127219,-10.317852,-10.576276,-130.479996,65.660004,-2.45,1729429077684.0,0.0
-4.295116,-10.188639,-1.710868,-78.050003,101.57,-12.46,1729429077704.0,0.0
-1.012164,-8.834301,-2.792424,-11.69,76.720001,-7.49,1729429077724.0,0.0
-0.287139,-3.395415,0.27996,10.71,54.529999,-12.11,1729429077752.0,0.0
0.66999,-5.639884,-1.868794,-31.01,28.559999,-0.28,1729429077764.0,0.0
4.814359,-9.236296,1.091127,103.739998,-12.67,45.290001,1729429077783.0,0.0
-4.907679,-12.842279,-0.375673,92.190002,-21.49,24.01,1729429077808.0,0.0
-1.148555,-10.284351,-7.475177,-3.71,-55.650002,-3.36,1729429077824.0,0.0
-0.236889,-9.281759,-8.276773,-35.560001,-54.18,-23.52,1729429077845.0,0.0
-1.462015,-6.905686,-7.144968,14.98,-39.689999,-14.98,1729429077866.0,0.0
-1.282553,-7.738388,-5.728417,47.880001,-43.259998,-6.79,1729429077884.0,0.0
-5.252246,-7.001399,-4.134798,44.939999,-36.470001,-4.41,1729429077908.0,0.0
-3.929015,-7.336394,-6.594619,-26.880001,-37.029999,-13.23,1729429077925.0,0.0
-2.074577,-7.140182,-9.001799,-57.610001,-30.17,-14.35,1729429077946.0,0.0
-6.118448,-9.351151,-12.813565,1.82,21.77,4.69,1729429077965.0,0.0
-4.402793,-8.193025,-12.222539,-72.169998,69.860001,-2.94,1729429077985.0,0.0
-2.775674,-10.662418,-7.446464,-86.309998,87.919998,2.17,1729429078006.0,0.0
-3.144169,-7.704889,-4.488935,3.36,95.620003,-15.33,1729429078025.0,0.0
-0.502493,-6.762117,-0.648455,14.7,74.550003,-23.52,1729429078046.0,0.0
0.947558,-5.79781,-4.814359,-39.759998,46.970001,-24.710001,1729429078065.0,0.0
4.68754,-5.45085,-1.78026,-14.07,42.209999,-0.98,1729429078085.0,0.0
2.517249,-4.280759,6.484549,89.040001,13.09,35.77,1729429078106.0,0.0
-3.646662,-14.67518,-1.605584,66.080002,-40.950001,24.85,1729429078125.0,0.0
-3.809374,-9.298509,-5.376673,38.849998,-58.029999,-3.85,1729429078147.0,0.0
-1.488336,-8.932407,-7.534998,-56.84,-62.790001,-20.58,1729429078165.0,0.0
-1.301696,-9.171689,-7.348359,-70.139999,-55.299999,-18.41,1729429078184.0,0.0
-0.416351,-6.45105,-4.953143,24.5,-49.700001,-4.2,1729429078205.0,0.0
-2.754139,-8.157133,-5.47717,52.990002,-51.52,3.22,1729429078228.0,0.0
-5.343173,-8.10449,-6.381658,-23.379999,-48.09,-8.4,1729429078247.0,0.0
-2.579463,-9.040084,-9.516255,-73.220001,-43.889999,-25.41,1729429078268.0,0.0
-3.069991,-7.781459,-10.181459,-22.33,-16.59,-19.32,1729429078286.0,0.0
-2.500499,-5.536992,-10.760524,31.43,7.56,-4.13,1729429078307.0,0.0
-5.010571,-4.297509,-13.150953,-10.43,45.849998,9.1,1729429078326.0,0.0
-3.014957,-8.657232,-13.837693,-111.790001,78.68,10.92,1729429078348.0,0.0
-3.172883,-7.202396,-15.826129,-76.580002,124.25,1.26,1729429078366.0,0.0
-1.59362,-9.834501,-2.337788,12.32,137.899994,0.98,1729429078386.0,0.0
0.193819,-0.265603,5.833702,124.25,107.029999,-12.04,1729429078407.0,0.0
4.419543,-4.299902,2.651247,-8.89,48.580002,-9.59,1729429078427.0,0.0
2.512464,-6.666404,5.632704,64.050003,2.94,21.139999,1729429078448.0,0.0
-0.39003,-10.963913,-0.217747,151.619995,-28.139999,46.34,1729429078471.0,0.0
-0.303888,-9.939785,-4.517649,79.660004,-50.889999,22.049999,1729429078486.0,0.0
-0.839881,-9.793823,-7.470392,-3.08,-53.689999,16.52,1729429078506.0,0.0
-1.423729,-9.073583,-8.008778,-41.580002,-50.959999,4.62,1729429078526.0,0.0
-1.435694,-7.470392,-5.912664,-0.49,-46.200001,7.49,1729429078547.0,0.0
-3.775874,-7.281359,-5.340781,27.440001,-50.540001,8.89,1729429078565.0,0.0
-3.723232,-7.661818,-7.479963,3.64,-46.689999,-0.91,1729429078586.0,0.0
-4.204189,-7.848458,-9.870394,-46.27,-34.509998,-7.56,1729429078607.0,0.0
-4.82393,-8.061419,-13.921442,-63.209999,-3.85,-7.98,1729429078625.0,0.0
-2.924029,-5.972485,-15.620347,-69.090004,47.389999,2.8,1729429078647.0,0.0
-2.134398,-8.346166,-9.470792,10.29,91.699997,27.299999,1729429078666.0,0.0
-4.149154,-10.169496,4.328616,100.309998,114.099998,16.66,1729429078686.0,0.0
-3.725625,-3.938586,1.804188,-11.41,60.830002,-4.9,1729429078707.0,0.0
0.930808,-11.665009,-8.10449,-133.910004,10.01,-37.029999,1729429078726.0,0.0
4.98425,-5.551349,-1.167697,45.849998,25.9,11.34,1729429078747.0,0.0
2.309074,-5.465207,4.462614,168.419998,13.51,54.599998,1729429078766.0,0.0
-3.586841,-13.933406,-2.179861,33.25,-39.34,39.060001,1729429078785.0,0.0
0.165105,-10.380065,-6.357729,9.52,-65.379997,24.219999,1729429078807.0,0.0
-2.222932,-8.599805,-5.776274,6.86,-53.900002,10.43,1729429078826.0,0.0
-1.770689,-7.975278,-5.166104,-11.55,-62.23,5.88,1729429078847.0,0.0
-3.239882,-8.618947,-4.766503,23.59,-71.68,12.32,1729429078866.0,0.0
-3.550949,-6.932007,-5.687739,33.459999,-69.790001,1.96,1729429078886.0,0.0
-6.051448,-10.296316,-8.425128,-31.01,-58.450001,2.1,1729429078909.0,0.0
-4.790431,-11.284552,-11.559726,-55.510002,-32.830002,-15.33,1729429078925.0,0.0
-5.501099,-8.910872,-14.651253,-17.99,23.030001,-21.629999,1729429078948.0,0.0
-2.189433,-6.343372,-12.404392,-53.830002,71.190002,-19.389999,1729429078966.0,0.0
-2.584249,-8.322237,-11.866007,-66.639999,101.360001,-7.56,1729429078986.0,0.0
-3.493521,-9.597611,-3.302095,-45.990002,114.309998,-19.18,1729429079006.0,0.0
-0.122034,-7.65464,2.414358,48.93,94.849998,-20.790001,1729429079025.0,0.0
-1.887937,-2.804388,-0.736989,4.69,68.040001,-24.43,1729429079046.0,0.0
4.776074,-6.053841,3.213561,-10.5,16.1,-1.26,1729429079066.0,0.0
1.672583,-6.331409,3.962514,107.309998,-15.47,33.040001,1729429079088.0,0.0
-4.316652,-13.844872,-3.768696,16.379999,-57.610001,14.84,1729429079106.0,0.0
-2.036292,-9.525827,-7.221539,-10.29,-70.769997,-0.21,1729429079125.0,0.0
-2.567499,-8.915657,-6.4678,-46.130001,-60.830002,-7.91,1729429079147.0,0.0
-2.069792,-8.444271,-6.022735,-37.799999,-56.84,-9.1,1729429079166.0,0.0
-3.012564,-8.403593,-5.534599,4.55,-53.549999,-2.87,1729429079186.0,0.0
-3.555735,-7.805387,-5.635098,-0.63,-51.310001,-11.9,1729429079206.0,0.0
-5.290531,-7.436893,-5.261817,-49.98,-42.84,-16.450001,1729429079225.0,0.0
-2.385644,-7.515855,-10.246067,-42.77,-42.77,-23.309999,1729429079247.0,0.0
-2.617748,-4.579862,-14.632111,-31.43,9.8,-7.07,1729429079266.0,0.0
-4.900501,-4.831109,-17.618353,-141.75,70.980003,0.42,1729429079285.0,0.0
-2.48375,-9.923036,-17.804993,-172.339996,104.300003,25.059999,1729429079306.0,0.0
-2.981457,-10.655239,-4.929214,-42.0,163.100006,7.77,1729429079325.0,0.0
-2.914458,-10.604989,6.728617,132.649994,140.490005,8.33,1729429079346.0,0.0
-2.316252,-3.682554,-1.430908,3.15,93.239998,-35.700001,1729429079366.0,0.0
4.807181,-8.267202,2.452643,-41.23,41.09,-12.6,1729429079385.0,0.0
-2.574677,-6.096912,2.639283,80.220001,10.43,17.219999,1729429079406.0,0.0
0.083749,-10.124033,-4.405186,92.82,-38.779999,20.370001,1729429079426.0,0.0
0.334995,-11.91147,-8.267202,153.160004,-50.400002,21.700001,1729429079447.0,0.0
-1.198804,-8.953942,-4.031906,229.320007,-44.170002,24.639999,1729429079466.0,0.0
-3.148954,-7.925028,-3.101098,255.360001,-47.459999,34.23,1729429079486.0,0.0
-4.529613,-9.138189,-1.299303,281.399994,-50.119999,48.09,1729429079506.0,0.0
-5.271388,-11.277373,-0.911665,314.720001,-50.540001,46.900002,1729429079525.0,0.0
-2.347359,-12.21536,-3.414558,338.170013,-42.07,37.450001,1729429079547.0,0.0
-0.284746,-12.110075,-2.502892,337.26001,-14.14,31.639999,1729429079565.0,0.0
-0.806381,-9.896714,-0.260818,318.290009,27.02,17.92,1729429079585.0,0.0
-0.698704,-9.887143,0.818345,296.660004,29.540001,3.29,1729429079606.0,0.0
-0.332602,-9.937392,1.112662,234.360001,41.23,-8.12,1729429079625.0,0.0
-1.165305,-10.542776,1.679761,177.380005,30.799999,-18.34,1729429079647.0,0.0
-2.433501,-10.861022,3.211168,194.880005,31.360001,-24.99,1729429079667.0,0.0
-2.723032,-8.269595,5.718846,226.100006,29.049999,-35.630001,1729429079685.0,0.0
-4.4674,-7.293324,6.441479,213.430008,23.52,-29.33,1729429079706.0,0.0
-2.842674,-8.678767,3.608376,141.399994,-1.89,-36.959999,1729429079725.0,0.0
-2.467,-8.827123,5.469993,206.639999,-3.29,-29.540001,1729429079747.0,0.0
-1.98365,-5.826523,8.152347,277.549988,9.87,-25.549999,1729429079765.0,0.0
-2.012364,-5.302495,6.9009,225.680008,5.32,-21.700001,1729429079793.0,0.0
-0.646062,-4.981857,5.209175,104.300003,4.2,-26.6,1729429079805.0,0.0
-2.237289,-4.65404,6.601797,-9.59,3.57,-19.67,1729429079829.0,0.0
-3.196811,-1.627119,7.692925,-91.629997,8.47,-1.89,1729429079849.0,0.0
-2.902494,2.40718,7.068398,-211.050003,17.710001,34.16,1729429079866.0,0.0
-2.029114,4.199404,6.065805,-503.649994,4.34,53.619999,1729429079885.0,0.0
-3.278167,-8.561519,-7.649854,-971.109985,-74.760002,43.259998,1729429079910.0,0.0
-0.157926,-13.380664,-12.284752,-927.780029,-19.950001,-23.52,1729429079926.0,0.0
-5.424529,-3.993621,-17.3025,-774.340027,-5.11,-10.15,1729429079949.0,0.0
-2.921637,-11.270195,-8.652447,-619.150024,-7.07,8.05,1729429079968.0,0.0
0.734596,-6.98465,-6.783652,-364.420013,6.09,26.530001,1729429079986.0,0.0
-1.871187,-11.822936,-5.017749,-167.020004,3.22,24.290001,1729429080006.0,0.0
-2.091327,-11.882757,-7.980063,36.330002,-15.61,-0.07,1729429080026.0,0.0
-3.522235,-8.925228,-9.142976,299.459991,-5.88,15.54,1729429080057.0,0.0
-4.541577,-7.398607,-6.74776,568.960022,10.85,53.130001,1729429080067.0,0.0
-5.986843,-6.431907,-3.713661,738.01001,13.23,97.790001,1729429080086.0,0.0
-5.326423,-5.776274,-0.591027,790.580017,-2.31,82.669998,1729429080107.0,0.0
-4.163511,-8.350951,2.95035,772.23999,8.19,28.210001,1729429080126.0,0.0
-2.167897,-10.660025,8.123632,685.369995,52.5,-5.81,1729429080151.0,0.0
-0.887737,-15.388243,7.611568,491.330017,51.380001,-39.060001,1729429080169.0,0.0
-0.323031,-8.547162,4.046263,294.0,27.440001,-78.68,1729429080187.0,0.0
-1.440479,0.61017,9.635897,269.01001,19.530001,-45.639999,1729429080219.0,0.0
-6.302694,1.150948,0.200997,41.299999,-11.76,-5.39,1729429080387.0,0.0
-0.591027,7.812566,4.98425,-238.979996,20.719999,37.029999,1729429080387.0,0.0
-7.477571,-2.438286,11.078769,-596.960022,62.02,40.25,1729429080388.0,0.0
-5.807381,-10.356135,-18.843477,-888.369995,51.170002,135.029999,1729429080388.0,0.0
-4.989035,-10.19821,-27.900312,-1401.469971,-88.690002,-54.740002,1729429080388.0,0.0
0.880559,-7.264609,-14.813965,-1059.800049,-80.360001,-34.650002,1729429080388.0,0.0
-1.524228,-14.151153,-4.938786,-569.450012,42.630001,-0.91,1729429080389.0,0.0
-4.218546,-6.553941,-4.328616,-338.869995,25.83,4.27,1729429080389.0,0.0
-3.096312,-13.387842,-7.980063,156.100006,-32.27,-29.190001,1729429080420.0,0.0
-3.773481,-8.671589,-5.223531,522.47998,-35.139999,-5.18,1729429080437.0,0.0
-8.197811,-3.010171,-3.115455,705.950012,-16.59,73.989998,1729429080451.0,0.0
-8.042276,-7.546963,-3.316452,670.179993,-32.830002,63.209999,1729429080466.0,0.0
-6.503692,-14.306686,-1.457229,719.039978,-27.58,29.610001,1729429080498.0,0.0
-0.894916,-14.950355,2.502892,696.01001,32.830002,-42.630001,1729429080511.0,0.0
-1.538585,-10.487741,0.978664,479.360016,33.459999,-86.099998,1729429080527.0,0.0
-0.294317,-6.429514,6.161518,451.429993,19.389999,-89.949997,1729429080548.0,0.0
-3.105884,-3.345166,9.449257,403.970001,-3.64,-59.010002,1729429080567.0,0.0
-6.319445,2.155933,7.133004,214.970001,-22.120001,-32.970001,1729429080587.0,0.0
-7.590034,-0.20339,-1.624727,-5.88,9.52,15.4,1729429080608.0,0.0
-0.794417,4.039084,4.788038,-283.920013,81.410004,13.72,1729429080629.0,0.0
-5.134997,3.053242,9.930215,-619.080017,50.400002,76.860001,1729429080648.0,0.0
-10.760524,-11.983256,10.482956,-983.640015,-21.35,87.639999,1729429080667.0,0.0
-3.694518,-8.642875,-15.254245,-1345.959961,-133.350006,-82.25,1729429080689.0,0.0
-1.76351,-9.915856,-13.184454,-969.150024,-48.580002,-55.23,1729429080710.0,0.0
-2.426322,-7.41775,-8.757731,-573.090027,-11.34,-8.82,1729429080729.0,0.0
-5.431707,-14.316258,-11.270195,-238.699997,21.42,15.12,1729429080749.0,0.0
-4.622933,-10.602598,-5.627919,120.120003,50.959999,16.66,1729429080780.0,0.0
-3.048456,-13.509877,-3.120241,275.799988,7.91,-6.3,1729429080788.0,0.0
-2.041078,-6.276374,-2.54357,592.130005,-27.860001,-1.96,1729429080809.0,0.0
-4.017549,-2.244468,-0.160319,794.919983,-13.58,66.57,1729429080828.0,0.0
-6.80758,-9.60479,4.778467,839.22998,-33.18,27.440001,1729429080848.0,0.0
-5.335995,-10.722239,7.343572,791.210022,13.65,-29.540001,1729429080868.0,0.0
-1.471586,-14.727824,8.066205,580.859985,11.34,-58.099998,1729429080888.0,0.0
-0.473779,-13.105491,3.517449,457.940002,7.56,-93.730003,1729429080912.0,0.0
-3.986443,-4.95075,11.339586,401.869995,36.259998,-94.220001,1729429080929.0,0.0
-2.89053,1.811367,7.530212,225.540009,-11.13,-84.0,1729429080949.0,0.0
-1.940579,1.361516,9.032906,98.419998,-31.92,-58.029999,1729429080968.0,0.0
-5.773881,9.300901,4.551149,-79.590004,-40.950001,-6.65,1729429080987.0,0.0
-2.979064,3.376273,4.67079,-184.309998,-0.07,42.91,1729429081007.0,0.0
-1.57687,-1.18684,5.62074,-357.630005,39.830002,51.52,1729429081035.0,0.0
-2.309074,4.381258,3.567699,-552.02002,36.259998,80.43,1729429081049.0,0.0
-11.933006,-12.693924,0.4666,-620.340027,-12.46,129.149994,1729429081067.0,0.0
-7.987241,-10.777272,-6.955935,-844.900024,-4.62,4.62,1729429081088.0,0.0
-1.808974,-13.349558,-4.278367,-961.52002,-16.73,13.440001,1729429081107.0,0.0
-2.014757,-11.416157,-2.09372,-720.22998,18.620001,-34.860001,1729429081127.0,0.0
-4.280759,-5.98445,-5.465207,-471.799988,20.93,-8.05,1729429081147.0,0.0
-3.613162,-11.837293,-14.4024,-137.199997,-1.05,2.66,1729429081168.0,0.0
-4.311867,-7.585248,0.229711,337.890015,80.010002,-10.64,1729429081187.0,0.0
-6.046663,-7.953743,5.563312,378.980011,11.41,27.299999,1729429081207.0,0.0
-2.758924,-6.288338,3.572484,486.98999,-72.169998,-1.19,1729429081228.0,0.0
-4.266403,-10.133603,-1.055235,680.609985,-85.959999,2.03,1729429081250.0,0.0
-2.768496,-8.178668,3.20399,905.660034,-47.950001,-21.91,1729429081268.0,0.0
-6.707082,-8.85823,10.990234,856.309998,44.52,-66.57,1729429081287.0,0.0
-1.416551,-18.257236,9.683753,468.440002,-27.16,-81.620003,1729429081307.0,0.0
-0.617348,-8.152347,8.51127,353.079987,-26.25,-81.480003,1729429081326.0,0.0
-3.95055,5.472386,8.453842,311.429993,-21.0,-53.41,1729429081348.0,0.0
-7.793423,5.151747,-0.502493,151.759995,-22.889999,-17.639999,1729429081368.0,0.0
-3.792624,4.304688,-0.949951,-49.560001,35.420002,-6.23,1729429081387.0,0.0
-1.509871,5.07757,7.532606,-284.410004,96.879997,20.719999,1729429081413.0,0.0
-4.199404,4.278367,11.803794,-535.429993,52.43,88.620003,1729429081428.0,0.0
-8.061419,-12.770494,7.262216,-725.27002,-32.689999,87.57,1729429081448.0,0.0
-4.333402,-19.281364,0.550349,-885.5,-75.739998,27.299999,1729429081469.0,0.0
-0.368495,-15.180067,0.945165,-776.720032,-0.84,3.15,1729429081486.0,0.0
-5.635098,-8.571091,-6.494121,-561.470032,22.4,-5.46,1729429081507.0,0.0
-3.620341,-9.377472,-9.375079,-126.139999,-15.05,4.83,1729429081527.0,0.0
-3.845266,-11.521441,2.194218,154.699997,26.18,21.35,1729429081663.0,0.0
-4.364508,-11.191232,3.692125,292.320007,28.0,8.89,1729429081664.0,0.0
-4.615755,-6.084948,0.971486,436.869995,-24.57,16.309999,1729429081666.0,0.0
-4.706682,-6.537192,5.493921,680.049988,-45.849998,11.76,1729429081668.0,0.0
-5.534599,-14.684752,10.753345,846.929993,15.61,-34.509998,1729429081668.0,0.0
-0.646062,-14.536398,8.626125,573.090027,17.710001,-61.389999,1729429081668.0,0.0
-2.467,-1.79701,9.738789,366.940002,-23.59,-62.439999,1729429081689.0,0.0
-2.014757,1.679761,7.814958,263.76001,-50.889999,-37.799999,1729429081971.0,0.0
-4.252046,7.424929,0.875773,180.180008,-47.880001,-21.280001,1729429081979.0,0.0
-3.905087,3.388237,-2.739782,71.330002,25.27,8.19,1729429081980.0,0.0
-1.521835,3.412165,3.957729,-142.660004,85.610001,24.99,1729429081983.0,0.0
-3.180061,5.278566,13.03849,-382.339996,104.860001,56.349998,1729429081984.0,0.0
-15.522241,-10.502099,12.253645,-609.070007,0.49,131.460007,1729429081984.0,0.0
-9.664611,-14.153545,1.600798,-802.340027,-88.480003,38.990002,1729429082053.0,0.0
-1.045663,-11.184053,-3.546163,-744.590027,-63.630001,18.27,1729429082054.0,0.0
-2.086541,-6.759724,-1.56012,-460.880005,-27.440001,-4.13,1729429082055.0,0.0
-6.161518,-9.097511,-8.571091,-244.930008,-35.420002,17.15,1729429082068.0,0.0
-2.24686,-11.57169,-11.382657,15.190001,-12.04,-11.97,1729429082068.0,0.0
-2.574677,-10.990234,0.062213,275.799988,49.560001,-3.01,1729429082068.0,0.0
-5.927022,-6.374479,7.23111,377.230011,8.19,6.58,1729429082069.0,0.0
-3.921836,-6.257231,4.220939,527.869995,-42.560001,15.96,1729429082069.0,0.0
-5.635098,-5.268995,2.892922,728.48999,-23.450001,15.4,1729429082069.0,0.0
-5.302495,-6.034698,10.590633,715.820007,38.779999,-39.830002,1729429082069.0,0.0
-3.694518,-12.026326,9.01137,418.25,-3.08,-76.510002,1729429082069.0,0.0
0.236889,-7.018148,6.513263,315.209991,-19.809999,-63.279999,1729429082069.0,0.0
-4.443472,1.5003,8.549555,299.950012,-24.219999,-29.049999,1729429082070.0,0.0
-2.914458,-1.971686,5.651847,192.080002,-44.869999,-38.709999,1729429082088.0,0.0
-6.802795,5.039285,0.643669,146.860001,-3.92,-17.85,1729429082108.0,0.0
-4.48415,4.237689,2.517249,-40.040001,68.949997,4.97,1729429082128.0,0.0
-2.876173,1.629512,11.380265,-211.960007,101.080002,26.389999,1729429082149.0,0.0
-3.110669,3.026921,14.634504,-472.920013,83.019997,44.52,1729429082172.0,0.0
-5.716454,3.220739,14.739788,-724.220032,19.460001,113.190002,1729429082189.0,0.0
-11.607583,-5.185246,2.385644,-972.160034,-80.5,70.980003,1729429082209.0,0.0
-4.476971,-7.951349,-5.340781,-1055.670044,-124.459999,39.48,1729429082228.0,0.0
-3.335595,-10.286745,-6.601797,-838.73999,-38.57,-12.88,1729429082250.0,0.0
-5.630312,-6.905686,-6.446264,-574.700012,-34.790001,-16.59,1729429082276.0,0.0
-3.708875,-9.506684,-11.160125,-376.110016,-19.6,-5.67,1729429082289.0,0.0
-1.045663,-14.543575,-13.579268,-170.309998,7.63,-11.27,1729429082310.0,0.0
-4.768896,-9.801002,-6.496514,63.91,50.259998,-22.75,1729429082411.0,0.0
-5.922236,-6.520442,-4.788038,286.860016,72.169998,-33.32,1729429082414.0,0.0
-4.974678,-6.661618,-1.691726,490.700012,67.760002,-12.25,1729429082456.0,0.0
-5.52742,-8.023134,-0.11007,633.570007,56.84,-12.46,1729429082457.0,0.0
-2.713461,-3.321238,10.545169,833.48999,22.610001,-51.240002,1729429082458.0,0.0
-1.359123,-5.106283,11.990433,1030.400024,68.32,-116.760002,1729429082459.0,0.0
1.258625,-1.275374,12.201002,885.359985,19.389999,-124.599998,1729429082473.0,0.0
-7.216753,3.512664,-5.355137,556.780029,-53.200001,-124.599998,1729429082488.0,0.0
-7.130611,6.922436,-9.456435,241.639999,37.450001,-89.739998,1729429082578.0,0.0
-4.275974,8.338986,3.98405,-40.950001,122.290001,-29.960001,1729429082582.0,0.0
-0.650848,-2.770889,10.30828,-291.059998,111.510002,12.88,1729429082583.0,0.0
-2.438286,-1.031307,23.052454,-620.549988,65.309998,22.049999,1729429082584.0,0.0
-9.829715,-6.221339,15.787844,-983.570007,-44.170002,66.709999,1729429082588.0,0.0
-5.367101,3.728018,1.591227,-1416.800049,-151.130005,-22.540001,1729429082608.0,0.0
-2.545963,8.429914,-8.678767,-1488.47998,-152.600006,-89.669998,1729429082627.0,0.0
-12.650853,6.084948,-15.457633,-1077.579956,-166.669998,-37.869999,1729429082649.0,0.0
-9.992428,-7.372287,-28.115667,-454.089996,-58.310001,-30.799999,1729429082668.0,0.0
2.388037,-11.921042,-19.884357,14.77,17.360001,-0.49,1729429082775.0,0.0
1.588834,3.720839,-9.32483,513.659973,89.25,-49.700001,1729429082776.0,0.0
-5.496314,5.749953,5.266603,879.830017,155.399994,6.37,1729429082779.0,0.0
-6.709475,-7.283752,9.887143,1038.940063,171.779999,105.419998,1729429082780.0,0.0
-0.12682,-9.322437,7.317252,513.590027,45.779999,-89.669998,1729429082840.0,0.0
2.081756,-9.217153,2.158326,508.339996,84.769997,-102.340004,1729429082840.0,0.0
1.194018,-2.273181,9.542577,507.080017,117.599998,-84.699997,1729429082840.0,0.0
-3.270989,5.146961,12.30868,154.770004,80.010002,-72.379997,1729429082881.0,0.0
-2.158326,2.15354,7.745567,-190.75,1.75,-41.369999,1729429082882.0,0.0
-0.899701,-4.438686,6.206983,-200.899994,-34.790001,18.690001,1729429082887.0,0.0
-2.304288,-4.266403,7.034898,-42.07,-15.47,42.84,1729429082913.0,0.0
-3.785445,-3.902694,6.21416,-0.77,6.86,42.279999,1729429082950.0,0.0
-5.757132,-3.945765,12.416357,-60.34,-3.5,42.77,1729429082951.0,0.0
-8.216952,-5.929415,11.889936,-144.479996,-39.200001,42.209999,1729429082976.0,0.0
-5.158926,-7.77428,8.499306,-229.600006,-57.189999,32.830002,1729429082993.0,0.0
-2.691926,-5.922236,5.582455,-331.589996,-52.150002,22.960001,1729429083013.0,0.0
-8.023134,-10.351351,0.141177,-379.329987,-8.12,12.11,1729429083039.0,0.0
-1.674976,-9.152546,5.290531,-405.019989,32.689999,-10.92,1729429083049.0,0.0
0.964308,-5.010571,7.109076,-442.330017,71.959999,2.52,1729429083067.0,0.0
-2.273181,-1.5003,0.533599,-507.98999,7.21,15.89,1729429083088.0,0.0
-5.953342,-18.410378,-8.578269,-443.660004,-35.490002,-3.71,1729429083135.0,0.0
-6.046663,-19.080368,-11.236694,-40.459999,-0.14,-21.210001,1729429083137.0,0.0
-7.003791,-14.371292,-7.111469,169.050003,25.129999,-40.529999,1729429083149.0,0.0
-4.706682,-10.372886,-3.701697,269.01001,-18.129999,-57.260002,1729429083168.0,0.0
-3.213561,-7.238289,-3.189633,337.959991,-23.73,-61.110001,1729429083187.0,0.0
-1.868794,-4.352544,-2.268396,393.190002,9.17,-40.110001,1729429083209.0,0.0
1.665405,-3.294917,6.613762,413.140015,23.450001,-28.07,1729429083228.0,0.0
-1.519442,-1.136591,13.294522,343.350006,22.4,-10.36,1729429083248.0,0.0
-5.268995,-12.760924,9.221939,270.410004,-70.209999,-19.25,1729429083268.0,0.0
5.178068,-6.309873,0.875773,250.040009,-1.68,-18.969999,1729429083289.0,0.0
-6.762117,-7.149754,1.617548,234.220001,72.940002,-5.6,1729429083308.0,0.0
-4.31426,2.502892,9.882358,97.230003,95.760002,-7.77,1729429083328.0,0.0
-10.188639,-2.053042,16.110876,-28.07,44.380001,41.509998,1729429083348.0,0.0
-1.825724,-13.337594,2.452643,-178.009995,-35.560001,27.23,1729429083369.0,0.0
1.945365,-7.613962,5.651847,-309.540009,43.049999,-3.5,1729429083390.0,0.0
0.660419,-3.735196,7.984849,-353.220001,54.18,26.74,1729429083411.0,0.0
0.0335,1.256232,7.350751,-437.779999,64.190002,-4.62,1729429083430.0,0.0
-5.235496,-6.558727,-1.634298,-494.549988,-8.68,39.34,1729429083451.0,0.0
-8.171489,-17.728422,-9.485149,-348.600006,-50.959999,-20.16,1729429083470.0,0.0
-5.852845,-16.646868,-7.295716,-43.470001,-8.47,-13.58,1729429083490.0,0.0
-5.391029,-11.456835,-4.48415,217.210007,28.0,-37.799999,1729429083512.0,0.0
-5.123034,-8.389235,-4.539185,325.290009,41.650002,-45.849998,1729429083530.0,0.0
-4.881358,-5.187639,-2.196611,330.399994,50.959999,-37.73,1729429083561.0,0.0
-2.54357,-3.24706,3.031706,325.98999,46.200001,-16.59,1729429083571.0,0.0
0.229711,2.203789,13.383057,296.799988,36.82,13.65,1729429083590.0,0.0
-3.395415,-8.322237,9.334401,246.470001,-73.5,37.939999,1729429083610.0,0.0
-0.72024,-9.298509,0.509671,259.910004,-41.23,-8.82,1729429083630.0,0.0
-0.148355,-7.152147,4.883751,236.110001,21.700001,17.5,1729429083651.0,0.0
-2.380858,-5.800202,2.67039,128.940002,52.43,-13.02,1729429083670.0,0.0
-6.73101,-5.134997,9.092726,59.150002,59.43,16.799999,1729429083694.0,0.0
-10.023535,-3.579663,11.487941,-65.730003,-25.83,73.779999,1729429083710.0,0.0
-2.053042,-16.735401,7.130611,-128.240005,-93.309998,29.960001,1729429083730.0,0.0
-4.165904,-9.181261,6.912865,-174.720001,-21.07,2.03,1729429083751.0,0.0
-4.412365,-6.685547,-4.828716,-183.680008,27.719999,18.690001,1729429083772.0,0.0
-1.706082,-8.001599,21.458834,-224.419998,44.59,19.6,1729429083790.0,0.0
1.378266,-5.970093,4.063013,-348.670013,33.18,10.01,1729429083811.0,0.0
-0.519243,1.866402,2.529213,-511.559998,-22.469999,3.08,1729429083830.0,0.0
-9.437292,-11.80858,-4.632504,-509.73999,-73.779999,42.0,1729429083853.0,0.0
-6.630512,-17.527426,-7.302894,-299.809998,-56.630001,-44.170002,1729429083870.0,0.0
-6.424729,-14.646468,-5.082355,-38.57,-10.15,-23.73,1729429083892.0,0.0
-6.24766,-12.583855,-5.024928,122.150002,-4.69,-62.790001,1729429083913.0,0.0
-4.007978,-8.348558,-7.022934,235.970001,-11.62,-69.790001,1729429083930.0,0.0
-3.261417,-6.211767,-2.928815,340.410004,22.26,-49.77,1729429083961.0,0.0
-0.66999,-2.842674,0.457029,364.0,44.66,-23.870001,1729429083972.0,0.0
2.567499,-1.368695,5.826523,297.850006,31.710001,-11.48,1729429083994.0,0.0
1.40698,-1.538585,11.243874,211.470001,-15.05,41.580002,1729429084011.0,0.0
-1.789831,-11.31805,3.223132,221.550003,-76.370003,28.559999,1729429084038.0,0.0
0.294317,-3.062813,2.816352,275.029999,56.209999,30.66,1729429084051.0,0.0
-13.921442,0.988236,15.754344,102.900002,68.809998,37.380001,1729429084071.0,0.0
-12.524034,-3.345166,17.053648,-119.629997,-21.49,93.449997,1729429084089.0,0.0
-4.749753,-11.349157,12.356536,-195.369995,-93.379997,75.389999,1729429084109.0,0.0
-3.823731,-16.345371,8.29113,-140.419998,-77.559998,55.720001,1729429084129.0,0.0
-8.245667,-14.414362,4.613362,-150.710007,-50.259998,12.18,1729429084150.0,0.0
-6.776474,-2.761317,2.359323,-206.919998,7.77,-23.030001,1729429084170.0,0.0
-0.839881,-4.35733,7.116255,-125.370003,50.68,9.66,1729429084189.0,0.0
1.325624,-5.347959,7.848458,-156.520004,56.77,-14.49,1729429084210.0,0.0
-1.923829,-4.359723,-0.909273,-341.390015,2.52,-0.35,1729429084240.0,0.0
-8.408379,-15.802199,-8.188239,-350.980011,-79.590004,-22.4,1729429084261.0,0.0
-4.228118,-17.788242,-8.066205,-97.790001,-74.410004,-66.220001,1729429084270.0,0.0
-3.696911,-11.143374,-4.086941,216.089996,57.540001,-56.560001,1729429084290.0,0.0
-5.099105,-4.689932,-1.768296,299.73999,85.75,-72.239998,1729429084311.0,0.0
-5.458029,-3.852444,0.105284,243.25,34.860001,-44.939999,1729429084330.0,0.0
-2.541178,-5.125426,2.15354,242.339996,47.040001,-30.73,1729429084353.0,0.0
-2.536392,-0.667598,11.854043,224.559998,82.459999,-22.190001,1729429084370.0,0.0
-8.070991,-13.909478,5.63749,19.67,-37.380001,-16.309999,1729429084389.0,0.0
3.699304,-13.560125,6.168696,157.919998,4.27,-30.66,1729429084410.0,0.0
1.512264,1.600798,5.501099,266.700012,95.760002,-27.02,1729429084430.0,0.0
-5.706882,3.34038,9.834501,31.5,38.220001,12.04,1729429084451.0,0.0
-7.652246,-1.586441,14.084153,-101.43,-25.620001,55.299999,1729429084470.0,0.0
-3.507878,-11.339586,6.235696,-48.650002,-58.380001,52.150002,1729429084489.0,0.0
-3.634698,-10.334601,18.764515,32.060001,-5.67,36.610001,1729429084511.0,0.0
-6.192625,-6.776474,1.974079,-166.039993,3.5,21.700001,1729429084529.0,0.0
-5.761917,-8.889337,10.719845,-400.190002,-24.639999,35.84,1729429084551.0,0.0
0.291924,-11.854043,8.638089,-275.450012,-28.0,20.58,1729429084570.0,0.0
1.07677,-6.345766,6.058627,-174.789993,21.07,6.44,1729429084589.0,0.0
-2.694318,-1.447658,3.469593,-271.73999,-3.08,34.860001,1729429084609.0,0.0
-6.898508,-5.778666,-0.988236,-387.100006,-14.14,30.73,1729429084630.0,0.0
-6.360123,-12.646068,-5.522634,-405.369995,-32.970001,-5.18,1729429084650.0,0.0
-6.833901,-16.424334,-6.235696,-245.070007,-41.02,-2.8,1729429084669.0,0.0
-6.352944,-15.096318,-7.142576,-19.6,-5.25,-33.110001,1729429084689.0,0.0
-4.912465,-9.571291,-7.23111,125.580002,10.64,-64.82,1729429084709.0,0.0
-3.720839,-6.78126,-4.821537,227.290009,46.48,-67.199997,1729429084728.0,0.0
-1.430908,-4.881358,-4.333402,277.339996,67.690002,-43.119999,1729429084749.0,0.0
-0.260818,-4.26401,-1.160519,335.649994,96.599998,-9.87,1729429084771.0,0.0
2.981457,-0.79681,6.556334,359.170013,108.360001,-19.040001,1729429084842.0,0.0
-5.259424,0.069392,15.11546,283.290009,67.900002,35.139999,1729429084843.0,0.0
-5.673382,-8.059027,9.542577,211.330002,-35.630001,18.27,1729429084844.0,0.0
3.359523,-9.238688,8.377272,270.76001,-20.719999,24.01,1729429084849.0,0.0
-3.273381,1.038485,8.717053,270.829987,28.07,43.400002,1729429084869.0,0.0
-7.030113,-3.048456,8.843873,96.25,-18.41,80.709999,1729429084889.0,0.0
-10.253245,-9.923036,7.343572,-2.66,-31.08,71.75,1729429084913.0,0.0
-5.982057,-12.787244,11.63869,-34.93,-0.21,26.25,1729429084933.0,0.0
-4.85743,-14.902499,17.759529,-164.710007,-24.639999,-0.07,1729429085011.0,0.0
-5.020142,-4.941179,14.639289,-362.040009,-58.799999,-0.7,1729429085014.0,0.0
-5.927022,1.225125,1.964507,-457.100006,-111.020004,-32.970001,1729429085018.0,0.0
-3.237489,-2.679961,4.24726,-358.049988,-68.599998,5.53,1729429085019.0,0.0
-1.794617,-8.678767,4.127619,-220.710007,-25.620001,-24.85,1729429085029.0,0.0
-0.820738,-6.269196,-3.024528,-216.720001,-2.17,-1.19,1729429085056.0,0.0
-3.9673,-10.516455,-3.854837,-168.279999,-20.299999,33.810001,1729429085070.0,0.0
-6.513263,-14.067404,-6.819544,-108.010002,-0.35,-4.34,1729429085093.0,0.0
-5.721239,-16.670795,-9.650253,-3.43,-29.4,-60.060001,1729429085113.0,0.0
-2.282753,-13.904692,-9.396614,202.020004,16.030001,-72.099998,1729429085130.0,0.0
-2.196611,-9.394222,-7.601997,436.589996,75.25,-74.830002,1729429085151.0,0.0
-1.380659,-1.981257,-4.974678,592.340027,147.0,-70.980003,1729429085168.0,0.0
-1.588834,9.245867,9.016156,624.820007,205.380005,-40.880001,1729429085189.0,0.0
-5.187639,11.174481,19.290936,313.390015,119.0,9.45,1729429085320.0,0.0
-6.094519,-6.757331,8.367701,-19.809999,-52.990002,10.15,1729429085323.0,0.0
2.57707,-10.712667,4.67079,21.98,-7.98,11.9,1729429085324.0,0.0
3.431308,-3.536592,6.032306,176.680008,66.57,21.35,1729429085335.0,0.0
-7.862815,3.469593,9.975677,63.0,86.590004,27.440001,1729429085336.0,0.0
-8.717053,-7.245467,19.585253,-77.489998,-24.360001,72.519997,1729429085336.0,0.0
-8.396415,-8.915657,14.134403,-194.389999,-33.670002,40.459999,1729429085337.0,0.0
-12.667603,-16.242479,1.713261,-350.980011,-105.910004,23.450001,1729429085351.0,0.0
0.693919,-7.020542,13.160524,-326.130005,-43.82,-23.309999,1729429085371.0,0.0
-0.009571,-0.416351,10.533205,-184.380005,38.43,-12.11,1729429085388.0,0.0
0.18664,-0.643669,0.272782,-302.890015,-1.82,-14.91,1729429085410.0,0.0
-5.120641,-7.398607,-2.493321,-350.209991,-32.060001,11.48,1729429085428.0,0.0
-6.273981,-13.222737,-5.034499,-280.910004,-41.16,-11.83,1729429085455.0,0.0
-4.625326,-15.96252,-4.453043,-87.709999,-38.5,-19.18,1729429085481.0,0.0
-5.099105,-15.046068,-1.713261,134.330002,-1.89,-36.259998,1729429085490.0,0.0
-5.257031,-11.298907,-0.480957,243.320007,-4.55,-62.650002,1729429085510.0,0.0
-4.491328,-7.195218,-2.404787,263.339996,-14.21,-82.040001,1729429085530.0,0.0
-2.287539,-5.350351,-1.61037,283.01001,11.13,-71.68,1729429085550.0,0.0
-2.476572,-7.190433,2.823531,287.350006,27.65,-61.040001,1729429085570.0,0.0
0.136391,-5.142176,7.958528,301.630005,34.23,-48.650002,1729429085589.0,0.0
-1.473979,-3.299703,9.413363,309.470001,31.43,-43.400002,1729429085610.0,0.0
-4.156333,-4.24726,8.382057,263.619995,11.55,-29.82,1729429085629.0,0.0
1.301696,-5.788238,5.584848,216.720001,7.91,-28.280001,1729429085652.0,0.0
0.782453,-2.809174,3.28056,137.479996,37.73,-22.68,1729429085670.0,0.0
0.607777,0.705883,6.24766,87.150002,59.639999,6.37,1729429085690.0,0.0
-6.336195,9.207582,19.65943,30.799999,69.860001,49.490002,1729429085711.0,0.0
-10.037891,-0.323031,7.465607,-237.930008,-25.690001,109.690002,1729429085729.0,0.0
-4.039084,-12.672389,12.169895,-437.220001,-79.099998,58.170002,1729429085750.0,0.0
-5.82413,-16.481762,2.682354,-530.460022,-103.879997,64.959999,1729429085769.0,0.0
-3.938586,-0.949951,0.923629,-339.149994,16.799999,8.68,1729429085791.0,0.0
-4.292724,-5.197211,7.939385,-118.020004,33.459999,32.759998,1729429085809.0,0.0
-3.017349,-7.668997,6.79083,-141.610001,-3.71,15.89,1729429085831.0,0.0
-0.820738,-10.021141,0.105284,-255.290009,-40.18,-4.34,1729429085850.0,0.0
-5.376673,-11.703296,-3.469593,-263.829987,-42.700001,-24.92,1729429085870.0,0.0
-2.648855,-7.743174,5.051248,-150.990005,-31.219999,3.64,1729429085891.0,0.0
-4.826324,-1.567299,7.781459,-198.449997,-33.810001,8.61,1729429085914.0,0.0
-4.699504,-1.399801,-1.050449,-381.640015,-93.169998,5.88,1729429085931.0,0.0
-5.295317,-4.835894,-5.812167,-512.190002,-102.129997,-15.61,1729429085954.0,0.0
-5.371887,-1.624727,-5.675776,-563.570007,-95.970001,-19.950001,1729429085971.0,0.0
-6.568298,-3.538985,-9.008978,-660.309998,-77.139999,-19.6,1729429085992.0,0.0
-0.519243,-10.112068,-16.957933,-539.210022,-76.720001,-17.710001,1729429086011.0,0.0
-0.473779,-8.116454,-14.835501,-260.26001,-11.76,-3.22,1729429086036.0,0.0
-1.835295,-5.326423,-12.193825,-70.07,29.469999,23.799999,1729429086052.0,0.0
-2.160719,-4.878965,-12.107682,-59.57,45.220001,37.240002,1729429086070.0,0.0
-0.591027,-7.477571,-11.660224,-53.48,51.799999,41.09,1729429086090.0,0.0
-1.088734,-5.958128,-8.475377,-1.68,64.540001,34.02,1729429086112.0,0.0
-2.148755,-6.396015,-7.23111,5.95,66.290001,34.93,1729429086129.0,0.0
-2.146362,-7.092326,-8.465806,1.61,58.240002,26.74,1729429086153.0,0.0
-3.192025,-7.491928,-9.29133,7.28,59.779999,17.5,1729429086172.0,0.0
-3.515057,-7.977671,-6.522834,81.550003,53.34,26.110001,1729429086190.0,0.0
-4.175476,-0.241675,-4.331009,105.980003,52.009998,29.120001,1729429086212.0,0.0
-3.07717,-4.457829,-7.575676,15.54,31.43,40.950001,1729429086231.0,0.0
-0.854238,-7.932207,-10.750952,17.5,22.610001,38.5,1729429086253.0,0.0
-1.813759,-7.446464,-12.172288,57.330002,39.27,18.34,1729429086270.0,0.0
-2.991028,-4.910072,-8.102098,84.07,59.709999,1.05,1729429086291.0,0.0
-4.362115,-7.262216,-6.039484,40.459999,59.920002,-17.01,1729429086318.0,0.0
-2.041078,-5.680561,-9.006584,45.57,41.439999,-32.060001,1729429086332.0,0.0
-0.421137,-5.462814,-10.681561,161.070007,38.709999,-25.200001,1729429086353.0,0.0
-1.210768,-6.049056,-3.902694,243.880005,44.099998,-16.940001,1729429086370.0,0.0
-0.729811,-5.563312,0.356531,325.220001,34.860001,-16.17,1729429086390.0,0.0
-4.17069,-0.380459,-4.773681,325.220001,0.98,14.35,1729429086411.0,0.0
-1.923829,-12.464212,-4.565506,378.980011,-30.380001,16.870001,1729429086430.0,0.0
-3.579663,-10.188639,-2.852244,318.920013,-13.09,-3.15,1729429086453.0,0.0
-0.437887,-0.117248,-2.909672,195.720001,-16.379999,7.77,1729429086470.0,0.0
-1.67019,-10.478169,-3.062813,-5.88,4.55,11.48,1729429086491.0,0.0
-1.131805,-11.75833,1.325624,-172.339996,2.38,3.01,1729429086512.0,0.0
-4.694718,-13.328021,-1.531406,-189.699997,-8.47,-3.78,1729429086531.0,0.0
-4.65404,-10.437491,-1.354338,-181.789993,-3.92,-15.89,1729429086551.0,0.0
-2.067399,-8.030313,-0.634098,-291.410004,-6.37,-29.82,1729429086570.0,0.0
-1.088734,-8.51127,-2.787638,-395.01001,-28.630001,-31.01,1729429086592.0,0.0
0.172283,-8.846266,-6.403193,-393.190002,-40.459999,-25.549999,1729429086612.0,0.0
0.066999,-6.015556,-11.803794,-290.709991,-40.670002,-24.01,1729429086631.0,0.0
-0.205783,-2.821138,-10.437491,-172.550003,-13.93,-4.41,1729429086652.0,0.0
0.236889,-2.086541,-10.530812,-108.709999,-3.22,31.639999,1729429086670.0,0.0
0.052642,-7.02772,-10.887343,-17.85,2.66,52.150002,1729429086692.0,0.0
-0.66999,-8.032705,-10.985448,21.0,10.36,24.57,1729429086710.0,0.0
-0.911665,-4.914857,-16.773687,70.980003,19.32,-11.41,1729429086730.0,0.0
-0.899701,-6.161518,-11.392227,214.690002,45.009998,-14.56,1729429086805.0,0.0
-0.861416,-3.337988,-2.498107,303.869995,40.740002,-18.059999,1729429086821.0,0.0
-2.739782,-3.012564,6.34098,178.289993,29.33,-46.619999,1729429086824.0,0.0
-5.828916,-10.217353,-7.54457,-35.91,-1.05,-49.84,1729429086833.0,0.0
-1.911865,-10.250853,-11.746366,192.5,-38.290001,-33.040001,1729429086836.0,0.0
-1.514657,-8.135597,-0.014357,433.51001,-10.64,4.83,1729429086851.0,0.0
-7.281359,-0.976272,-0.363709,230.720001,2.38,53.760002,1729429086871.0,0.0
-4.21376,-14.153545,-4.259224,-75.529999,-44.450001,-4.55,1729429086890.0,0.0
-1.153341,-12.23211,-4.682754,-54.32,-29.4,35.77,1729429086913.0,0.0
-2.811567,-8.13799,-0.074178,-92.82,15.12,24.710001,1729429086931.0,0.0
-2.754139,-7.623533,-3.605984,-289.799988,-17.99,3.43,1729429086950.0,0.0
-0.696311,-7.707282,-5.429315,-337.820007,-49.07,-1.12,1729429086970.0,0.0
0.727418,-8.743374,-9.915856,-277.269989,-52.220001,-2.24,1729429086990.0,0.0
-1.524228,-1.557728,-11.095518,-146.580002,-28.91,18.41,1729429087010.0,0.0
-0.679562,-1.272982,-11.459228,-45.990002,0.49,64.400002,1729429087030.0,0.0
1.533799,-6.386444,-11.377872,-57.119999,6.44,71.68,1729429087051.0,0.0
1.45005,-6.226124,-10.006784,-11.41,25.059999,60.760002,1729429087070.0,0.0
-1.639083,-6.326623,-13.854443,4.48,44.029999,26.74,1729429087090.0,0.0
-5.003392,-7.336394,-12.028719,75.879997,72.379997,8.47,1729429087110.0,0.0
-3.680161,-6.549156,-6.738188,157.710007,69.650002,-11.2,1729429087130.0,0.0
-0.552742,-6.9679,-2.323431,128.100006,17.710001,-67.340004,1729429087150.0,0.0
-1.105484,-8.54477,-1.404587,34.580002,17.360001,-101.639999,1729429087170.0,0.0
-2.426322,-3.742374,-6.716653,-9.45,5.81,-94.360001,1729429087190.0,0.0
-3.620341,-10.738988,-4.675575,230.369995,-16.940001,-50.049999,1729429087210.0,0.0
-1.942972,-0.344566,-2.225325,388.5,-19.950001,-8.82,1729429087231.0,0.0
-5.773881,-1.115055,-2.26361,182.839996,-5.11,19.879999,1729429087251.0,0.0
-4.139583,-10.470992,-6.611369,-79.099998,-39.27,18.969999,1729429087270.0,0.0
-1.007378,-11.863614,-6.276374,-73.989998,-24.780001,26.389999,1729429087292.0,0.0
-1.387837,-8.322237,-3.151347,-45.43,6.44,35.07,1729429087310.0,0.0
-2.979064,-8.159525,-3.979264,-107.239998,-2.17,29.049999,1729429087330.0,0.0
-0.674776,-8.429914,-7.32443,-173.740005,-20.860001,7.77,1729429087352.0,0.0
0.31346,-6.266802,-11.040483,-155.610001,-19.040001,4.48,1729429087371.0,0.0
0.433101,-4.776074,-9.633504,-72.449997,-3.5,18.83,1729429087390.0,0.0
0.672383,-1.962115,-9.152546,-57.610001,11.55,29.26,1729429087411.0,0.0
0.397209,-3.261417,-11.794223,-89.040001,19.040001,40.950001,1729429087431.0,0.0
1.584049,-6.223732,-12.442677,-66.290001,33.040001,39.130001,1729429087452.0,0.0
0.382852,-5.548956,-12.483356,-20.370001,64.610001,21.77,1729429087472.0,0.0
-4.338188,-10.695917,-3.785445,12.04,80.150002,-0.7,1729429087491.0,0.0
-4.335794,-8.276773,-2.459821,-13.72,27.65,-70.279999,1729429087510.0,0.0
-1.107877,-3.979264,-5.249853,102.480003,0.91,-79.800003,1729429087532.0,0.0
-3.696911,-6.687939,-4.481757,95.830002,-10.64,-56.349998,1729429087551.0,0.0
-7.022934,-10.839487,-5.211568,40.880001,-9.52,-57.049999,1729429087570.0,0.0
-0.952343,-7.427321,-3.278167,166.389999,-48.720001,-34.02,1729429087590.0,0.0
-3.821337,1.969293,-9.016156,191.100006,-22.540001,13.79,1729429087611.0,0.0
-2.088934,-6.707082,-1.28016,157.149994,-18.34,65.449997,1729429087631.0,0.0
-1.648655,-11.093125,-3.54377,-84.910004,-23.73,55.650002,1729429087653.0,0.0
-2.586641,-13.30888,-8.618947,-152.880005,-51.939999,16.73,1729429087671.0,0.0
-3.163311,-9.329616,-8.276773,-80.989998,-24.639999,-34.16,1729429087690.0,0.0
-3.096312,-7.767102,-6.843473,-68.599998,-10.5,-20.51,1729429087712.0,0.0
-1.962115,-6.252446,-6.740582,-93.940002,-11.41,-9.24,1729429087731.0,0.0
-1.971686,-5.304887,-7.523034,-119.209999,-6.44,1.68,1729429087751.0,0.0
-1.605584,-3.816552,-9.571291,-145.25,-6.65,0.28,1729429087772.0,0.0
1.105484,1.241875,-11.375479,-122.57,-5.04,18.27,1729429087789.0,0.0
1.555335,-0.26321,-13.057633,-92.260002,26.32,50.959999,1729429087811.0,0.0
4.821537,-4.342973,-15.622739,-104.090004,46.34,38.920002,1729429087831.0,0.0
1.624727,-5.553742,-8.415558,-83.510002,77.910004,27.719999,1729429087852.0,0.0
-12.354142,-17.280964,2.208575,-71.959999,53.130001,-9.66,1729429087871.0,0.0
-4.271189,-8.142776,-9.221939,-48.02,7.77,-114.169998,1729429087890.0,0.0
5.958128,1.820938,-12.346965,186.059998,-0.49,-110.809998,1729429087914.0,0.0
-0.16989,4.388437,-12.739388,138.039993,31.15,-27.860001,1729429087930.0,0.0
-5.206782,-9.276974,-0.727418,63.98,29.68,-3.43,1729429087952.0,0.0
-3.103491,-9.499505,-5.386244,75.25,-10.85,-39.549999,1729429087970.0,0.0
-1.038485,-2.852244,-6.4678,246.330002,-48.509998,-11.27,1729429087991.0,0.0
-5.412565,-10.265208,-4.376472,246.960007,-26.110001,31.710001,1729429088012.0,0.0
-4.565506,-11.22473,-8.762517,-141.820007,-26.040001,11.13,1729429088030.0,0.0
-3.665804,-15.96252,-7.951349,-14.98,-22.610001,21.77,1729429088052.0,0.0
-1.70369,-8.142776,-4.240082,53.760002,-4.62,-9.17,1729429088070.0,0.0
-2.538785,-7.563712,-4.055835,-67.480003,-15.12,-8.96,1729429088090.0,0.0
-1.021735,-7.008578,-6.821937,-134.539993,-33.25,-25.83,1729429088111.0,0.0
-0.667598,-5.146961,-9.403792,-73.989998,-27.09,-10.01,1729429088130.0,0.0
0.758525,-2.641676,-10.853845,-45.220001,-17.639999,6.72,1729429088154.0,0.0
1.548156,-0.569492,-13.430914,-38.360001,-1.26,34.580002,1729429088169.0,0.0
2.29711,-3.737589,-11.679367,21.42,21.700001,62.369999,1729429088189.0,0.0
2.428715,-3.677768,-9.004191,35.91,37.799999,53.689999,1729429088211.0,0.0
1.184447,-1.22034,-11.77508,-3.85,38.220001,46.27,1729429088229.0,0.0
1.404587,-5.56092,-14.337792,-8.12,40.740002,26.040001,1729429088251.0,0.0
-6.12084,-13.921442,-3.998406,86.099998,56.700001,-5.18,1729429088271.0,0.0
-5.163712,-9.308081,-5.072784,46.200001,27.51,-93.800003,1729429088292.0,0.0
-1.217947,-6.929615,-5.776274,115.989998,8.61,-100.239998,1729429088311.0,0.0
-6.912865,-15.206388,2.021935,199.710007,26.880001,-54.950001,1729429088329.0,0.0
-5.651847,-11.234302,-5.379066,136.009995,-24.710001,-93.449997,1729429088350.0,0.0
1.007378,-7.84128,-1.117448,327.73999,-25.549999,4.27,1729429088371.0,0.0
-1.548156,-8.154739,6.273981,195.789993,34.93,15.190001,1729429088389.0,0.0
-5.123034,-10.604989,-2.78046,-155.259995,-11.62,17.710001,1729429088411.0,0.0
0.021535,-12.981063,-3.716053,-144.759995,-30.1,-3.78,1729429088431.0,0.0
0.543171,-5.740381,-2.825923,-107.660004,-20.860001,-3.43,1729429088450.0,0.0
-2.608176,-4.465007,-3.436093,-181.860001,-18.690001,1.54,1729429088469.0,0.0
-1.837688,-5.278566,-8.379664,-277.970001,-48.509998,2.94,1729429088491.0,0.0
0.430708,-2.519642,-13.095919,-262.570007,-47.32,10.22,1729429088511.0,0.0
-0.078963,-5.757132,-12.748959,-155.330002,-27.93,33.670002,1729429088530.0,0.0
0.514457,-3.208775,-14.129619,-70.769997,-0.49,34.439999,1729429088550.0,0.0
3.694518,-3.663411,-16.591831,-1.75,15.26,52.080002,1729429088569.0,0.0
4.158726,0.16989,-17.790636,33.950001,63.630001,55.790001,1729429088590.0,0.0
-1.138984,-6.379266,-8.504091,62.299999,114.309998,59.5,1729429088611.0,0.0
-8.719445,-18.814764,-1.538585,23.940001,86.169998,1.68,1729429088629.0,0.0
-2.191825,-12.610175,-1.854438,12.25,22.4,-124.18,1729429088651.0,0.0
0.392423,1.002593,-0.177069,154.770004,-30.59,-118.720001,1729429088671.0,0.0
-8.429914,-10.91845,-8.999406,36.470001,-10.43,-70.840004,1729429088689.0,0.0
0.760918,-10.834702,-8.015956,95.620003,-42.209999,-41.299999,1729429088712.0,0.0
1.514657,-4.479364,-8.52802,343.350006,6.58,52.150002,1729429088729.0,0.0
-0.442672,-3.601198,0.660419,339.98999,61.040001,57.959999,1729429088751.0,0.0
-4.079762,-12.177074,-0.083749,-66.779999,-20.299999,33.670002,1729429088769.0,0.0
-2.510071,-12.260822,-3.24706,-257.73999,-64.540001,-41.720001,1729429088789.0,0.0
-1.4668,-9.353544,-6.695118,-217.770004,-68.809998,-55.790001,1729429088809.0,0.0
-1.540978,-5.924629,-7.817351,-142.729996,-42.91,-49.560001,1729429088829.0,0.0
-1.332802,-5.034499,-9.107083,-141.820007,-36.330002,-23.309999,1729429088850.0,0.0
-1.148555,-6.4343,-10.928021,-136.850006,-34.580002,-5.88,1729429088869.0,0.0
-0.320638,-3.854837,-10.408779,-80.5,-17.01,5.46,1729429088889.0,0.0
0.959522,-0.315853,-11.198411,-31.5,-8.33,23.030001,1729429088912.0,0.0
1.897508,-0.035892,-11.734402,11.48,6.86,52.080002,1729429088930.0,0.0
2.98385,-1.237089,-15.562919,7.28,22.889999,63.84,1729429088952.0,0.0
5.63749,-0.72024,-19.262222,28.35,52.43,56.560001,1729429088971.0,0.0
7.812566,0.248854,-15.108281,119.279999,120.050003,63.700001,1729429088989.0,0.0
-7.982457,-20.834309,28.077381,74.760002,128.660004,71.050003,1729429089009.0,0.0
-10.626525,-10.200603,-10.229317,-68.459999,6.3,-163.589996,1729429089031.0,0.0
-1.07677,12.760924,-5.929415,168.490005,-41.509998,-58.799999,1729429089049.0,0.0
-5.072784,-7.190433,-7.958528,138.669998,-4.9,-14.98,1729429089069.0,0.0
-1.287339,-2.713461,-7.826923,72.519997,-36.540001,-2.38,1729429089089.0,0.0
2.974278,-1.088734,-6.329016,137.690002,-22.469999,6.58,1729429089109.0,0.0
1.615155,-8.68116,-7.479963,150.570007,-16.870001,41.23,1729429089129.0,0.0
-0.634098,-9.710074,-7.54457,133.490005,-36.470001,16.59,1729429089150.0,0.0
-1.213161,-10.578669,-6.367301,297.429993,-38.43,32.970001,1729429089169.0,0.0
-1.79701,-7.735995,-5.345565,421.190002,-42.420002,14.14,1729429089189.0,0.0
-4.041477,-7.403394,-2.876173,446.880005,-53.34,37.240002,1729429089212.0,0.0
-5.520242,-11.150554,-1.816152,393.470001,-54.040001,8.26,1729429089229.0,0.0
-3.053242,-13.619946,-0.253639,337.329987,-45.990002,-26.389999,1729429089250.0,0.0
-0.457029,-11.485549,0.509671,361.829987,-9.45,-24.08,1729429089269.0,0.0
0.358923,-8.618947,1.529014,376.600006,34.369999,-21.559999,1729429089288.0,0.0
0.5001,-8.197811,4.398008,327.320007,40.110001,-36.119999,1729429089310.0,0.0
-0.452243,-8.949157,5.429315,259.420013,37.380001,-48.09,1729429089329.0,0.0
0.894916,-9.052048,4.989035,244.720001,32.34,-54.670002,1729429089352.0,0.0
-0.117248,-6.21416,6.539584,273.910004,49.07,-58.52,1729429089371.0,0.0
-1.141376,-5.570491,7.482357,209.789993,41.650002,-58.099998,1729429089389.0,0.0
-0.31346,-5.793024,6.367301,131.110001,30.870001,-54.880001,1729429089410.0,0.0
-0.299103,-4.046263,7.06122,65.309998,37.099998,-47.040001,1729429089430.0,0.0
0.014357,-3.558127,4.807181,0.91,43.400002,-27.51,1729429089451.0,0.0
1.495514,-8.520842,6.520442,-120.190002,21.0,-20.58,1729429089469.0,0.0
0.550349,-11.538191,8.508877,-264.809998,14.35,-12.18,1729429089488.0,0.0
-4.642076,-10.643275,10.336994,-499.309998,6.65,-10.01,1729429089511.0,0.0
-3.122634,-10.650455,5.998806,-693.559998,-36.610001,-21.139999,1729429089531.0,0.0
-1.088734,-11.076375,1.974079,-677.039978,-60.900002,-54.529999,1729429089549.0,0.0
-3.790231,-8.4347,1.043271,-551.809998,-0.21,-85.260002,1729429089569.0,0.0
-2.821138,-5.209175,-1.344766,-573.929993,1.68,-104.440002,1729429089588.0,0.0
-3.395415,-4.867002,-2.447858,-497.839996,8.05,-70.699997,1729429089609.0,0.0
-1.502693,-9.322437,-4.010371,-274.399994,2.17,-30.030001,1729429089630.0,0.0
1.069592,-5.053641,-6.218946,-153.720001,-2.45,-17.57,1729429089650.0,0.0
-0.509671,-8.12124,-8.295916,15.12,-13.86,25.34,1729429089668.0,0.0
-0.337388,-5.572884,-8.518449,249.759995,-8.75,52.360001,1729429089691.0,0.0
-0.191426,-3.608376,-3.273381,552.440002,27.23,96.110001,1729429089709.0,0.0
-0.586242,-6.309873,2.275574,632.309998,8.4,99.400002,1729429089730.0,0.0
-0.476172,-13.076776,4.268795,671.789978,-39.830002,37.52,1729429089750.0,0.0
1.301696,-14.921642,1.37348,765.450012,-9.94,-16.450001,1729429089769.0,0.0
1.801795,-7.314859,11.349157,775.390015,96.809998,-27.02,1729429089788.0,0.0
-1.990828,1.0002,11.581261,512.75,86.870003,-13.09,1729429089813.0,0.0
0.047856,-0.461815,8.171489,139.789993,18.059999,8.75,1729429089830.0,0.0
2.287539,-8.123632,3.680161,-91.209999,-11.55,35.209999,1729429089849.0,0.0
-1.540978,-10.810772,6.065805,-211.539993,1.12,36.400002,1729429089869.0,0.0
-4.711468,-10.884951,4.412365,-435.190002,3.57,24.57,1729429089890.0,0.0
-4.290331,-17.828922,7.927422,-630.77002,-17.08,-1.82,1729429089912.0,0.0
-2.395216,-11.200804,4.223332,-740.109985,-26.389999,-2.1,1729429089928.0,0.0
-1.524228,-10.549955,3.055635,-689.01001,-8.26,-52.990002,1729429089950.0,0.0
-0.380459,-7.647461,-1.222732,-571.830017,-23.870001,-74.760002,1729429089969.0,0.0
-2.612962,-2.991028,-3.972085,-236.809998,-26.389999,-32.34,1729429089990.0,0.0
-5.407779,-7.310073,-2.146362,155.119995,-2.17,24.85,1729429090011.0,0.0
-2.067399,-11.679367,1.012164,393.049988,-1.47,31.43,1729429090029.0,0.0
0.153141,-11.586047,0.811167,626.289978,-11.69,31.360001,1729429090049.0,0.0
0.27996,-10.126426,5.446064,709.030029,35.07,7.21,1729429090070.0,0.0
-1.392623,-8.62134,7.716853,615.02002,44.450001,-23.52,1729429090090.0,0.0
-0.696311,-7.54457,9.171689,475.51001,44.170002,-37.450001,1729429090108.0,0.0
-0.62692,-5.252246,9.674182,334.110016,37.939999,-30.73,1729429090128.0,0.0
1.124627,-8.303094,7.941778,167.649994,10.85,-29.469999,1729429090151.0,0.0
1.722832,-8.389235,6.69751,51.170002,4.62,-24.85,1729429090170.0,0.0
-0.722632,-8.173882,6.802795,-76.090004,3.15,-22.960001,1729429090187.0,0.0
0.732204,-6.209375,7.956135,-282.660004,1.05,-28.91,1729429090211.0,0.0
0.287139,-6.513263,7.123433,-560.840027,-11.41,-18.76,1729429090228.0,0.0
-2.155933,-9.784252,6.800402,-788.830017,-45.5,-29.68,1729429090250.0,0.0
-4.156333,-11.942577,5.460421,-807.309998,-59.639999,-48.369999,1729429090268.0,0.0
-2.474179,-9.147761,3.04367,-662.27002,-53.48,-84.559998,1729429090289.0,0.0
-1.859223,-4.929214,0.789631,-535.919983,-37.240002,-102.340004,1729429090309.0,0.0
-1.70369,-4.768896,-5.034499,-388.429993,-49.630001,-74.690002,1729429090327.0,0.0
-3.113062,-5.582455,-7.920243,-86.379997,-34.299999,-5.74,1729429090351.0,0.0
-0.964308,-9.662218,-6.448657,219.520004,-13.23,42.84,1729429090370.0,0.0
-1.141376,-8.286345,-1.820938,430.779999,23.52,62.09,1729429090388.0,0.0
-0.332602,-9.667004,-0.354138,473.410004,2.38,56.279999,1729429090416.0,0.0
0.354138,-11.889936,1.761117,584.5,-5.25,33.670002,1729429090429.0,0.0
0.543171,-9.370294,5.371887,680.190002,39.970001,-21.07,1729429090449.0,0.0
-4.768896,-12.201002,6.845865,576.099976,44.869999,-67.480003,1729429090471.0,0.0
3.661019,-5.726025,7.793423,397.040009,34.02,-56.279999,1729429090489.0,0.0
-1.162912,-3.06042,8.827123,278.529999,33.670002,-37.73,1729429090509.0,0.0
0.827917,-0.531207,6.845865,156.800003,19.25,-24.219999,1729429090529.0,0.0
1.753939,-4.773681,4.881358,40.32,3.15,-0.84,1729429090550.0,0.0
-1.124627,-10.303494,6.302694,-90.510002,16.030001,7.84,1729429090569.0,0.0
-0.021535,-11.547763,8.772088,-370.089996,12.46,-5.88,1729429090590.0,0.0
-1.301696,-11.315658,7.264609,-708.400024,-31.57,-27.23,1729429090608.0,0.0
-1.411765,-11.767902,2.26361,-800.099976,-65.730003,-23.940001,1729429090628.0,0.0
-2.096112,-10.528419,3.802195,-648.690002,-29.120001,-61.459999,1729429090651.0,0.0
-2.120041,-4.716253,2.56032,-558.809998,-2.38,-85.889999,1729429090668.0,0.0
-0.370888,-4.029513,-3.326023,-463.540009,-13.37,-85.120003,1729429090687.0,0.0
0.01675,-9.102298,-6.139983,-74.690002,-10.5,-4.06,1729429090709.0,0.0
0.39003,-8.293523,-4.819145,226.520004,5.39,33.810001,1729429090728.0,0.0
-1.122234,-9.052048,-2.756532,392.630005,20.51,47.880001,1729429090749.0,0.0
-0.480957,-9.669396,-0.445065,469.980011,8.26,43.68,1729429090770.0,0.0
0.141177,-9.336794,0.751346,574.909973,-4.97,31.710001,1729429090788.0,0.0
1.840081,-5.730811,3.031706,658.700012,31.01,18.620001,1729429090809.0,0.0
2.191825,-4.869394,4.101298,629.22998,62.720001,12.67,1729429090828.0,0.0
-5.173282,-11.578869,7.960921,490.420013,30.24,-50.540001,1729429090849.0,0.0
-1.160519,-11.009377,15.893128,367.570007,27.16,-6.86,1729429090869.0,0.0
1.29691,-5.067998,8.245667,200.130005,7.35,-21.49,1729429090889.0,0.0
2.502892,-2.318645,4.493721,-72.519997,3.71,-7.49,1729429090912.0,0.0
2.598605,-4.855037,6.029913,-357.700012,-14.07,0.49,1729429090928.0,0.0
-2.225325,-8.499306,8.941978,-611.030029,-12.81,-0.77,1729429090951.0,0.0
-4.508078,-15.337994,3.761517,-791.0,-63.98,-14.56,1729429090968.0,0.0
2.718246,-15.086747,1.253839,-759.640015,-61.670002,-69.510002,1729429090988.0,0.0
-0.734596,-8.128418,3.038885,-552.440002,-30.309999,-64.050003,1729429091008.0,0.0
-2.510071,-4.831109,-0.617348,-450.799988,-17.01,-63.700001,1729429091028.0,0.0
-1.861616,-5.541777,-4.259224,-256.269989,-38.709999,-39.200001,1729429091048.0,0.0
-0.272782,-7.082755,-7.972885,-62.720001,-34.650002,-3.01,1729429091069.0,0.0
0.248854,-9.135797,-9.394222,146.860001,-15.96,34.369999,1729429091089.0,0.0
-0.064606,-7.518249,-5.625526,316.959991,23.52,57.540001,1729429091108.0,0.0
0.117248,-6.860222,-1.184447,412.440002,27.02,73.43,1729429091132.0,0.0
1.18684,-7.45125,0.583849,486.640015,13.16,70.07,1729429091149.0,0.0
2.48375,-7.314859,1.067199,576.659973,16.59,57.959999,1729429091168.0,0.0
2.421536,-7.192825,3.744767,643.789978,59.290001,38.009998,1729429091189.0,0.0
-3.804588,-7.759924,9.195618,602.070007,59.57,-35.209999,1729429091209.0,0.0
-3.402594,-8.161918,16.091732,502.25,38.57,-4.2,1729429091228.0,0.0
-3.665804,-9.927821,12.725031,304.98999,-7.42,-14.91,1729429091249.0,0.0
3.888337,-2.993421,5.108676,83.790001,-24.08,-13.51,1729429091267.0,0.0
3.022135,-1.158126,3.806981,-75.529999,-9.24,9.73,1729429091289.0,0.0
0.160319,-3.728018,6.525227,-196.0,-6.09,36.82,1729429091309.0,0.0
-1.691726,-2.11047,6.553941,-358.119995,1.54,49.630001,1729429091327.0,0.0
-2.222932,-10.399208,6.015556,-569.380005,-14.56,42.279999,1729429091350.0,0.0
-0.007178,-12.856635,1.435694,-770.630005,-55.790001,33.529999,1729429091368.0,0.0
1.268196,-7.089933,2.54357,-732.970032,-42.349998,-28.49,1729429091388.0,0.0
-3.105884,-0.234497,3.182454,-673.119995,-54.670002,-37.380001,1729429091409.0,0.0
-3.426522,-4.146761,-5.046463,-571.340027,-97.860001,-51.939999,1729429091429.0,0.0
-3.754339,-7.781459,-12.428321,-259.350006,-82.459999,-11.62,1729429091458.0,0.0
-3.139383,-7.465607,-11.777473,77.489998,-37.450001,38.849998,1729429091468.0,0.0
-3.436093,-8.776874,-7.76471,282.100006,-6.16,71.190002,1729429091490.0,0.0
-2.275574,-8.738588,-4.960321,395.779999,-6.72,85.190002,1729429091509.0,0.0
-0.27996,-7.073184,-3.546163,474.529999,-0.28,88.059998,1729429091527.0,0.0
-0.629312,-8.420342,-0.301496,514.01001,17.57,77.699997,1729429091550.0,0.0
-1.636691,-10.021141,1.574477,525.77002,20.58,58.170002,1729429091567.0,0.0
1.323231,-9.387043,2.041078,555.659973,43.189999,30.309999,1729429091587.0,0.0
-0.973879,-5.723632,9.286544,518.77002,64.190002,-20.02,1729429091610.0,0.0
-9.312866,-8.013563,19.207188,382.130005,28.210001,5.46,1729429091627.0,0.0
-4.055835,-6.118448,4.577469,137.619995,-23.24,9.8,1729429091649.0,0.0
4.847858,-8.671589,-2.177469,-152.460007,-34.439999,13.440001,1729429091670.0,0.0
-1.658226,-11.923435,1.679761,-315.350006,10.22,28.42,1729429091688.0,0.0
-6.9679,-12.019149,6.364908,-430.640015,63.279999,30.73,1729429091709.0,0.0
-4.146761,-12.476178,-0.758525,-817.390015,-30.52,-50.400002,1729429091728.0,0.0
-0.066999,-11.794223,-0.057428,-778.470032,3.92,-94.779999,1729429091794.0,0.0
-2.411965,-5.187639,2.63689,-706.929993,1.33,-81.550003,1729429091829.0,0.0
-2.352145,-1.641476,0.660419,-660.52002,-51.52,-90.720001,1729429091829.0,0.0
-5.067998,-2.062613,-8.085347,-509.880005,-63.630001,-47.459999,1729429091830.0,0.0
-3.464807,-7.479963,-17.577675,-238.419998,-67.340004,-11.9,1729429091831.0,0.0
-2.127219,-8.992228,-16.27598,125.300003,-21.629999,23.17,1729429091848.0,0.0
-2.904887,-7.003791,-8.470592,382.970001,21.77,38.009998,1729429091867.0,0.0
-2.785245,-5.69731,-4.893322,505.75,24.85,42.420002,1729429091889.0,0.0
-1.323231,-6.79083,-4.019942,567.349976,5.74,66.360001,1729429091911.0,0.0
-0.981057,-7.956135,-2.208575,600.039978,1.47,57.189999,1729429091928.0,0.0
-2.184647,-8.62134,1.548156,614.669983,3.01,48.299999,1729429091951.0,0.0
-1.418944,-8.635696,2.376073,596.890015,9.31,19.32,1729429091969.0,0.0
-0.418744,-9.693325,2.677568,571.690002,35.700001,3.08,1729429091987.0,0.0
-0.193819,-10.250853,3.019742,565.950012,52.709999,-17.85,1729429092008.0,0.0
1.804188,-9.166903,9.760324,557.47998,91.279999,-37.59,1729429092027.0,0.0
-14.05544,-0.607777,14.682359,369.390015,85.260002,-37.029999,1729429092048.0,0.0
-5.139783,-5.972485,10.143176,104.580002,-33.040001,-40.529999,1729429092067.0,0.0
4.175476,-4.252046,5.460421,12.88,-40.950001,-20.440001,1729429092088.0,0.0
-1.490728,-6.190232,4.788038,33.529999,-2.66,-14.42,1729429092119.0,0.0
-5.405386,-9.303294,6.453443,-178.710007,17.360001,-14.35,1729429092127.0,0.0
-1.143769,-4.63729,11.129018,-527.590027,34.16,5.25,1729429092148.0,0.0
-1.564906,-15.716059,11.064411,-775.320007,-43.889999,-9.52,1729429092167.0,0.0
-3.014957,-8.25763,11.236694,-906.570007,-45.150002,-26.809999,1729429092187.0,0.0
-4.362115,5.886343,9.396614,-1028.719971,-31.85,-74.059998,1729429092208.0,0.0
-5.161318,8.200203,-3.304488,-1068.550049,-133.0,-136.220001,1729429092227.0,0.0
-3.897908,1.330409,-15.641882,-729.609985,-130.759995,-123.059998,1729429092248.0,0.0
-1.677369,-11.538191,-20.264814,-99.889999,-121.029999,-10.64,1729429092268.0,0.0
-4.448257,-14.438292,-12.839886,420.769989,-19.389999,26.530001,1729429092288.0,0.0
-7.67139,-2.859423,-5.82413,608.650024,42.349998,24.219999,1729429092307.0,0.0
-5.501099,-4.194618,-4.141976,465.98999,15.33,68.879997,1729429092327.0,0.0
-2.359323,-10.171888,-3.57727,325.220001,-24.219999,26.460001,1729429092348.0,0.0
-3.718446,-10.832308,-0.028714,470.610016,-5.18,27.719999,1729429092367.0,0.0
-1.51705,-7.326823,5.13739,729.049988,108.290001,-23.379999,1729429092387.0,0.0
-1.198804,-6.778866,6.092126,705.809998,101.779999,-52.080002,1729429092408.0,0.0
-0.457029,-7.515855,8.080563,662.830017,104.160004,-52.639999,1729429092445.0,0.0
-1.428515,-3.479164,8.171489,580.440002,108.5,-63.700001,1729429092485.0,0.0
-2.531606,0.531207,9.06162,397.670013,98.0,-56.490002,1729429092491.0,0.0
-2.907279,0.337388,9.06162,160.789993,64.120003,-43.470001,1729429092493.0,0.0
-3.589234,-1.926222,9.123833,21.559999,38.920002,-20.93,1729429092654.0,0.0
-4.981857,-3.622734,11.432907,15.05,31.710001,-3.36,1729429092656.0,0.0
-5.821737,-7.343572,11.107484,-12.6,-0.21,-9.38,1729429092658.0,0.0
-3.974478,-7.238289,9.769895,-19.809999,-2.45,-20.860001,1729429092659.0,0.0
-3.256632,-5.814559,8.638089,-118.720001,-8.4,-35.209999,1729429092660.0,0.0
-2.175076,-6.606583,7.405786,-263.899994,-17.15,-39.549999,1729429092661.0,0.0
-2.665605,-8.336594,6.786045,-417.76001,-14.07,-48.02,1729429092662.0,0.0
-3.376273,-8.516055,6.300302,-582.470032,-21.629999,-47.810001,1729429092663.0,0.0
-2.419144,-9.765109,8.516055,-678.720032,-32.41,-57.400002,1729429092667.0,0.0
-5.536992,-6.585048,6.513263,-737.030029,-25.059999,-86.449997,1729429092687.0,0.0
-1.892723,-2.59382,8.219346,-856.799988,-35.349998,-137.130005,1729429092706.0,0.0
-4.843073,-0.995414,-1.29691,-613.27002,-104.93,-163.029999,1729429092729.0,0.0
-4.524827,-0.602991,-5.003392,-404.459991,-89.459999,-111.090004,1729429092750.0,0.0
-3.227918,-2.182254,-17.312071,-327.040009,-80.57,-86.660004,1729429092767.0,0.0
-1.359123,-9.152546,-18.812372,-138.25,-41.369999,-15.96,1729429092785.0,0.0
0.476172,-9.571291,-16.584654,221.199997,12.46,30.52,1729429092807.0,0.0
-0.698704,-6.635297,-8.023134,564.130005,72.239998,51.939999,1729429092827.0,0.0
-3.419343,-2.900101,0.224925,742.48999,88.900002,102.830002,1729429092848.0,0.0
-1.493121,-5.74756,3.795017,720.859985,44.170002,59.220001,1729429092866.0,0.0
-0.363709,-7.958528,1.366302,728.48999,7.98,13.23,1729429092885.0,0.0
0.397209,-4.792823,3.235096,804.720032,82.949997,-8.68,1729429092909.0,0.0
-0.495314,-3.677768,5.539384,771.75,131.389999,-18.200001,1729429092927.0,0.0
2.79721,-4.194618,11.839686,648.690002,147.979996,-28.559999,1729429092948.0,0.0
-19.427328,3.505485,19.401007,270.130005,123.620003,60.130001,1729429092967.0,0.0
1.031307,-12.526425,12.107682,-46.549999,-35.91,10.22,1729429092986.0,0.0
-3.108276,-11.310873,10.837094,-12.32,7.63,1.75,1729429093006.0,0.0
-4.347759,-10.042676,9.784252,-234.080002,-3.57,-22.4,1729429093026.0,0.0
-3.838088,-9.920642,10.009177,-599.47998,-33.670002,-44.799999,1729429093047.0,0.0
-0.815953,-4.912465,15.058033,-1000.369995,-23.24,-61.599998,1729429093067.0,0.0
-1.51705,1.036092,12.856635,-1182.859985,-49.209999,-128.449997,1729429093086.0,0.0
-4.161119,4.089334,1.651048,-1121.119995,-92.75,-195.300003,1729429093107.0,0.0
-4.386044,1.9669,-11.454442,-772.309998,-88.970001,-186.339996,1729429093127.0,0.0
-1.414158,-4.599005,-15.220744,-275.100006,-64.959999,-65.800003,1729429093147.0,0.0
-1.899901,-7.999206,-16.778471,-11.06,-22.4,-22.26,1729429093171.0,0.0
-1.31366,-7.771888,-14.751752,196.770004,11.9,3.92,1729429093185.0,0.0
-0.457029,-7.104291,-11.073983,408.940002,33.110001,26.6,1729429093207.0,0.0
-0.684347,-3.739982,-6.367301,633.710022,60.549999,66.360001,1729429093226.0,0.0
-2.510071,-3.974478,0.014357,765.52002,84.209999,91.980003,1729429093252.0,0.0
-3.682554,-5.998806,3.823731,826.909973,39.27,54.040001,1729429093266.0,0.0
-0.957129,-5.283352,3.361916,909.51001,29.33,-10.01,1729429093286.0,0.0
0.827917,6.238089,6.501299,923.090027,117.599998,1.89,1729429093306.0,0.0
-4.48415,7.941778,12.459428,615.789978,141.610001,53.41,1729429093327.0,0.0
-4.488935,-6.458229,12.827922,151.690002,19.32,64.470001,1729429093347.0,0.0
-4.158726,-15.153747,15.268601,100.169998,27.790001,46.619999,1729429093367.0,0.0
-1.70369,-10.265208,10.559525,66.919998,39.759998,-17.290001,1729429093386.0,0.0
-0.600598,-8.221739,6.84108,-152.460007,0.77,-25.200001,1729429093409.0,0.0
-2.677568,-7.685746,8.767302,-296.23999,11.34,-23.870001,1729429093426.0,0.0
-4.194618,-8.539984,9.616754,-595.48999,-4.2,-26.809999,1729429093446.0,0.0
-3.785445,-6.252446,7.070791,-915.809998,-18.34,-49.560001,1729429093468.0,0.0
-3.488736,-6.400801,7.702496,-1114.400024,-19.110001,-86.449997,1729429093486.0,0.0
-1.880759,-3.144169,5.65424,-1047.339966,-51.170002,-192.990005,1729429093507.0,0.0
-4.606184,-2.486143,-0.497707,-788.549988,-71.82,-188.300003,1729429093528.0,0.0
-2.620141,-2.502892,-7.554141,-477.820007,-87.080002,-143.360001,1729429093550.0,0.0
-2.043471,-6.482157,-13.789837,-144.199997,-69.160004,-53.760002,1729429093565.0,0.0
-3.053242,-8.214561,-13.749159,56.91,-22.82,-8.19,1729429093587.0,0.0
-2.993421,-6.73101,-12.425928,215.880005,7.63,23.66,1729429093608.0,0.0
-2.24686,-8.066205,-10.325029,465.429993,12.74,73.150002,1729429093627.0,0.0
-1.519442,-5.548956,-6.130411,760.200012,42.420002,102.059998,1729429093650.0,0.0
-2.720639,-5.029713,-0.057428,964.530029,64.82,100.660004,1729429093667.0,0.0
-1.756332,-5.869594,1.880759,1015.280029,67.690002,21.700001,1729429093686.0,0.0
0.124427,-5.123034,4.151547,998.549988,125.440002,-40.459999,1729429093707.0,0.0
-1.505085,12.789637,20.994625,681.450012,195.440002,-62.16,1729429093729.0,0.0
-10.382458,2.316252,14.093725,72.519997,30.66,38.43,1729429093748.0,0.0
3.069991,-14.773287,4.898108,-120.68,-66.080002,8.19,1729429093768.0,0.0
-2.289931,-10.262815,9.138189,24.57,35.700001,-7.0,1729429093787.0,0.0
-3.065206,-9.556933,8.65484,-278.529999,25.129999,-25.059999,1729429093806.0,0.0
-2.354537,-9.506684,7.121039,-810.73999,-9.17,-32.619999,1729429093826.0,0.0
0.89013,-7.941778,9.114261,-1134.77002,-8.54,-30.24,1729429093846.0,0.0
-1.770689,-9.745967,8.233703,-1221.079956,-24.57,-141.539993,1729429093866.0,0.0
-8.501699,-4.733003,0.954736,-1068.410034,-71.610001,-209.930008,1729429093886.0,0.0
-4.118048,-1.361516,-1.842474,-741.02002,-95.550003,-226.729996,1729429093911.0,0.0
-4.15394,-2.39043,-7.745567,-341.880005,-74.690002,-119.0,1729429093925.0,0.0
-3.828516,-3.938586,-15.471991,-145.320007,-58.099998,-55.720001,1729429093947.0,0.0
-0.70349,-7.534998,-17.31925,24.710001,-47.18,-15.61,1729429093967.0,0.0
-0.51685,-7.006185,-14.584253,272.929993,3.01,2.66,1729429093985.0,0.0
-0.425922,-5.276174,-10.052249,532.210022,27.09,44.029999,1729429094006.0,0.0
-1.543371,-3.696911,-5.012963,783.929993,51.939999,101.709999,1729429094026.0,0.0
-3.115455,-5.515456,5.302495,935.970032,57.119999,99.190002,1729429094051.0,0.0
-0.638884,-7.156933,4.070191,917.349976,20.16,-17.85,1729429094068.0,0.0
2.103291,-3.498307,3.098706,895.160034,84.07,-30.1,1729429094086.0,0.0
2.500499,0.358923,5.113462,787.150024,150.289993,-37.170002,1729429094109.0,0.0
-10.593026,7.566105,19.042084,361.130005,142.520004,3.92,1729429094129.0,0.0
-0.937986,-5.15414,13.021741,-75.32,-9.73,32.759998,1729429094147.0,0.0
-2.383251,-12.12204,11.602797,-16.940001,-13.23,39.200001,1729429094166.0,0.0
-2.335395,-9.32483,9.700503,-12.81,7.07,7.14,1729429094186.0,0.0
-2.694318,-10.583455,5.142176,-212.869995,-6.79,-13.02,1729429094206.0,0.0
-4.036692,-8.271988,6.589834,-490.980011,26.110001,-33.25,1729429094225.0,0.0
-1.935793,-7.161718,9.571291,-823.690002,51.59,-34.650002,1729429094248.0,0.0
-1.012164,-3.515057,7.597212,-1180.130005,28.07,-64.400002,1729429094265.0,0.0
-1.258625,-1.071985,8.975478,-1331.400024,-16.52,-197.610001,1729429094285.0,0.0
-5.333601,-2.423929,-2.517249,-1095.849976,-77.209999,-231.070007,1729429094306.0,0.0
-4.106083,-7.125826,-8.882158,-540.539978,-78.68,-150.639999,1729429094325.0,0.0
-1.722832,-5.429315,-12.976277,-70.910004,-53.200001,-66.57,1729429094345.0,0.0
-4.019942,-5.716454,-16.201803,61.810001,-22.33,-41.16,1729429094366.0,0.0
-1.404587,-6.628119,-13.093525,180.669998,-4.34,-8.68,1729429094385.0,0.0
-0.502493,-7.209574,-11.765509,632.099976,9.24,65.870003,1729429094407.0,0.0
-1.971686,-2.732604,-3.23031,987.910034,63.77,113.330002,1729429094426.0,0.0
-3.744767,-2.48375,6.721439,1111.73999,85.959999,97.019997,1729429094447.0,0.0
-1.952543,-5.024928,7.152147,1019.059998,44.66,-14.28,1729429094466.0,0.0
1.294517,0.416351,6.34098,893.76001,78.260002,-17.43,1729429094492.0,0.0
-6.89133,10.727024,19.982464,565.039978,149.520004,34.509998,1729429094507.0,0.0
-2.519642,-9.166903,11.74158,40.18,-57.82,57.189999,1729429094526.0,0.0
-0.378066,-16.230515,9.927821,96.949997,-26.32,16.17,1729429094547.0,0.0
-2.117648,-6.876972,10.947165,112.699997,27.23,-10.29,1729429094566.0,0.0
-2.438286,-8.283953,6.874579,-138.600006,-13.440001,-13.65,1729429094585.0,0.0
-2.151148,-7.147361,6.460621,-255.080002,2.1,-10.15,1729429094607.0,0.0
-2.467,-6.910471,7.405786,-444.080017,17.360001,-18.129999,1729429094625.0,0.0
-3.558127,-6.173482,5.63749,-774.340027,14.28,-28.07,1729429094648.0,0.0
-2.172683,-8.568698,6.463014,-1087.23999,11.41,-61.599998,1729429094666.0,0.0
-0.799203,-7.243074,12.543176,-1177.890015,-18.27,-183.820007,1729429094685.0,0.0
-5.498707,-2.455036,3.522235,-998.970032,-66.919998,-214.830002,1729429094706.0,0.0
-2.261217,-2.07697,-11.94497,-659.820007,-90.440002,-209.369995,1729429094725.0,0.0
-2.318645,-8.047063,-15.239887,-85.540001,-57.889999,-66.849998,1729429094747.0,0.0
-1.67019,-7.896315,-15.768701,151.690002,-13.3,-28.139999,1729429094766.0,0.0
-1.167697,-9.300901,-11.645866,369.25,16.940001,18.200001,1729429094786.0,0.0
-0.122034,-7.415358,-7.456036,615.580017,30.24,55.369999,1729429094806.0,0.0
-1.416551,-4.615755,-1.043271,848.539978,66.5,92.050003,1729429094826.0,0.0
-2.622534,-6.573084,4.414758,920.289978,58.029999,56.77,1729429094848.0,0.0
-0.375673,-5.594419,4.371687,959.280029,37.310001,-11.27,1729429094866.0,0.0
0.332602,0.957129,8.025528,918.119995,111.650002,-22.469999,1729429094886.0,0.0
-0.988236,3.046063,11.550155,630.419983,113.610001,1.75,1729429094909.0,0.0
-4.0008,-1.323231,11.815758,199.080002,37.59,27.02,1729429094925.0,0.0
0.215354,-7.982457,10.796415,74.620003,7.63,39.970001,1729429094948.0,0.0
-0.775275,-10.272388,11.88515,111.230003,27.719999,20.51,1729429094966.0,0.0
-0.605384,-9.360723,10.193424,39.549999,34.16,-2.1,1729429094985.0,0.0
-1.447658,-7.156933,6.941578,-87.57,15.75,-11.69,1729429095016.0,0.0
-4.828716,-6.082555,6.21416,-152.669998,30.030001,-8.4,1729429095026.0,0.0
-4.218546,-6.953543,8.645268,-349.440002,44.099998,-12.6,1729429095047.0,0.0
-2.122434,-3.28056,7.877172,-911.539978,30.59,-34.23,1729429095066.0,0.0
-3.493521,-4.151547,9.406186,-1142.050049,11.06,-51.170002,1729429095085.0,0.0
-1.512264,1.78026,9.875179,-1170.540039,-46.970001,-153.860001,1729429095109.0,0.0
-3.534199,1.210768,-2.155933,-965.51001,-117.669998,-152.740005,1729429095127.0,0.0
-3.902694,-8.032705,-14.218152,-483.140015,-134.960007,-86.519997,1729429095147.0,0.0
-4.316652,-8.846266,-16.345371,-100.169998,-68.25,-42.07,1729429095166.0,0.0
-4.642076,-7.946564,-13.27538,-24.5,-30.799999,-29.540001,1729429095185.0,0.0
-1.591227,-8.508877,-14.311473,60.27,-20.23,-21.84,1729429095210.0,0.0
0.165105,-7.68096,-11.947363,269.429993,8.4,4.62,1729429095227.0,0.0
-0.461815,-5.745167,-7.927422,494.830017,40.880001,42.279999,1729429095246.0,0.0
-2.462214,-6.91765,-0.892523,633.849976,53.48,79.309998,1729429095266.0,0.0
-2.311467,-7.953743,2.177469,645.960022,35.0,57.260002,1729429095285.0,0.0
-1.773082,-7.630712,2.359323,573.369995,18.620001,24.01,1729429095306.0,0.0
-1.442872,-7.886744,3.555735,493.149994,16.17,3.57,1729429095326.0,0.0
-1.89033,-10.162319,3.56052,442.540009,8.47,-17.219999,1729429095346.0,0.0
-1.064806,-7.908278,4.125226,479.429993,23.24,-16.799999,1729429095365.0,0.0
-1.17009,-3.309274,5.965307,509.529999,59.779999,-21.280001,1729429095386.0,0.0
-1.880759,-4.859823,5.991628,370.720001,58.099998,-10.08,1729429095406.0,0.0
-1.174876,-5.510671,12.24168,307.790009,81.970001,-17.290001,1729429095425.0,0.0
-6.915257,-2.952743,15.08914,179.059998,55.439999,-10.78,1729429095447.0,0.0
-1.505085,-4.283153,10.164711,116.059998,13.79,-21.700001,1729429095465.0,0.0
-2.155933,-3.438486,9.408579,150.149994,21.700001,-12.46,1729429095485.0,0.0
-2.541178,-1.404587,8.961121,115.010002,31.360001,-20.23,1729429095506.0,0.0
-2.70389,-2.78046,8.152347,68.32,29.26,-16.24,1729429095525.0,0.0
-3.302095,-2.859423,8.472985,93.449997,38.990002,-10.85,1729429095546.0,0.0
-2.194218,-3.629912,8.903693,55.860001,39.41,-14.7,1729429095565.0,0.0
-2.242075,-7.68096,9.674182,-90.93,22.26,-16.940001,1729429095585.0,0.0
-3.175276,-8.382057,9.322437,-238.350006,20.65,-24.290001,1729429095605.0,0.0
-4.197011,-7.276574,8.171489,-473.269989,21.35,-37.170002,1729429095625.0,0.0
-1.234696,-2.404787,9.066404,-806.75,16.66,-53.200001,1729429095648.0,0.0
0.435494,1.086342,6.489335,-1166.619995,-5.32,-63.84,1729429095665.0,0.0
-1.564906,-6.774081,1.926222,-1254.959961,-62.09,-155.470001,1729429095685.0,0.0
-6.664011,-6.549156,4.517649,-843.220032,-51.380001,-154.070007,1729429095705.0,0.0
-5.192425,-7.578069,-4.553542,-369.459991,-76.160004,-118.720001,1729429095725.0,0.0
-2.354537,-8.123632,-8.55434,-76.790001,-83.230003,-56.07,1729429095747.0,0.0
-3.225525,-7.805387,-10.241282,-114.800003,-67.690002,-47.389999,1729429095765.0,0.0
-1.328017,-8.616554,-8.831908,-79.169998,-50.540001,-31.5,1729429095909.0,0.0
-1.548156,-9.10469,-5.9342,6.37,-19.879999,-22.26,1729429095909.0,0.0
-1.531406,-8.432307,-4.567898,85.610001,-3.22,-12.95,1729429095909.0,0.0
-1.438086,-8.240881,-3.349952,128.520004,0.63,-11.83,1729429095909.0,0.0
-1.270589,-7.960921,-1.634298,110.669998,-8.4,-19.25,1729429095910.0,0.0
-2.043471,-6.946364,-1.56012,85.610001,-22.33,-21.629999,1729429095910.0,0.0
-1.849652,-9.028119,-3.696911,-32.060001,-21.700001,-35.209999,1729429095925.0,0.0
-0.904487,-7.972885,-5.680561,-180.880005,-45.360001,-47.740002,1729429095945.0,0.0
-2.155933,-8.207381,-4.733003,-227.570007,-40.32,-40.810001,1729429096027.0,0.0
-2.036292,-7.932207,-5.883951,-226.100006,-35.420002,-41.23,1729429096029.0,0.0
-1.959722,-6.798009,-8.023134,-198.729996,-30.17,-30.940001,1729429096030.0,0.0
-1.861616,-5.429315,-8.910872,-169.330002,-26.950001,-21.210001,1729429096031.0,0.0
-1.660619,-6.551548,-9.224331,-110.739998,-19.879999,-3.57,1729429096048.0,0.0
-0.473779,-5.668597,-10.681561,-68.809998,-9.03,3.85,1729429096064.0,0.0
0.413958,-6.166305,-11.617154,-86.169998,13.51,5.46,1729429096084.0,0.0
0.524028,-5.580062,-10.590633,-79.870003,26.18,7.0,1729429096107.0,0.0
0.078963,-4.797609,-9.332008,-56.700001,36.610001,10.57,1729429096124.0,0.0
-0.378066,-3.943372,-8.549555,-40.459999,41.369999,14.14,1729429096146.0,0.0
-1.0002,-4.027121,-8.202596,-41.509998,38.639999,16.59,1729429096164.0,0.0
-1.395016,-6.022735,-10.078569,-62.09,35.77,11.62,1729429096184.0,0.0
0.746561,-6.788438,-12.8686,-80.5,43.189999,-8.96,1729429096204.0,0.0
3.409772,-3.548556,-13.773087,-10.43,59.5,-13.79,1729429096225.0,0.0
2.849852,-1.820938,-7.82453,29.26,76.019997,-8.82,1729429096246.0,0.0
-0.66999,-6.106483,-6.285945,55.299999,77.559998,-3.01,1729429096265.0,0.0
-3.022135,-5.965307,-3.266203,211.119995,67.129997,10.29,1729429096285.0,0.0
-6.223732,-1.249053,1.481157,228.479996,38.5,15.61,1729429096305.0,0.0
-3.397808,-9.245867,-5.749953,116.690002,11.76,6.58,1729429096324.0,0.0
1.194018,-9.911072,-10.671989,212.240005,-36.189999,-5.53,1729429096347.0,0.0
-0.842274,-17.434107,-5.465207,355.670013,-48.580002,-14.35,1729429096365.0,0.0
0.617348,-1.976472,-14.529219,172.199997,-35.490002,-64.540001,1729429096384.0,0.0
-0.68674,-4.48415,-3.486342,104.650002,-21.629999,-20.299999,1729429096405.0,0.0
-2.411965,-10.114462,-3.87398,-63.98,-18.129999,-11.27,1729429096424.0,0.0
-2.208575,-9.408579,-4.962714,-89.040001,-21.139999,-19.040001,1729429096446.0,0.0
-1.301696,-8.427521,-4.936393,-126.770004,-22.4,-27.58,1729429096465.0,0.0
-0.234497,-9.128618,-6.034698,-183.190002,-25.9,-39.41,1729429096485.0,0.0
-0.33021,-7.264609,-9.068797,-217.070007,-21.559999,-52.360001,1729429096504.0,0.0
0.014357,-6.754939,-10.951948,-190.190002,-15.61,-47.670002,1729429096532.0,0.0
0.739382,-4.409972,-10.171888,-114.379997,0.63,-42.630001,1729429096547.0,0.0
2.22054,-1.677369,-9.997212,-56.700001,15.68,-20.370001,1729429096564.0,0.0
5.350351,2.409572,-11.392227,-78.470001,26.110001,-3.43,1729429096584.0,0.0
7.869993,1.660619,-11.131411,-77.209999,35.700001,32.830002,1729429096605.0,0.0
3.706482,-5.036892,-7.709675,-29.68,55.790001,42.209999,1729429096625.0,0.0
0.741775,-0.710668,-4.821537,109.340004,51.170002,30.309999,1729429096647.0,0.0
-8.039884,-12.516854,-1.095913,276.220001,22.049999,74.410004,1729429096666.0,0.0
-9.466006,-11.942577,7.623533,107.730003,7.07,-6.23,1729429096685.0,0.0
-2.976671,-9.722038,-11.193624,-78.190002,-50.540001,-41.650002,1729429096706.0,0.0
5.166104,-6.628119,-10.554741,68.949997,-42.98,-25.969999,1729429096725.0,0.0
1.823331,17.776279,-16.120445,148.259995,-1.19,13.51,1729429096807.0,0.0
-1.722832,-10.942378,-9.253045,354.690002,8.82,116.900002,1729429096816.0,0.0
-4.819145,-4.809574,-9.772287,-82.809998,-10.71,-0.42,1729429096818.0,0.0
-1.330409,-12.320643,-3.629912,-139.020004,-43.540001,-40.459999,1729429096820.0,0.0
-0.830309,-11.241481,-8.025528,-72.940002,-25.690001,-16.66,1729429096828.0,0.0
-1.22034,-7.384251,-5.4676,-55.650002,-2.59,-16.17,1729429096847.0,0.0
0.454636,-3.852444,-8.896514,-137.970001,-0.14,-27.860001,1729429096865.0,0.0
2.998207,-4.969893,-11.799009,-169.820007,-2.94,-11.55,1729429096886.0,0.0
2.481357,-4.615755,-12.516854,-145.949997,10.5,-14.42,1729429096910.0,0.0
1.847259,-1.775474,-9.743573,-22.190001,31.01,8.96,1729429096936.0,0.0
2.706282,0.4666,-8.769694,2.45,42.0,19.950001,1729429096947.0,0.0
4.838287,-0.787239,-8.255238,-8.75,39.759998,40.599998,1729429096967.0,0.0
2.861816,-4.957928,-6.78126,-23.799999,38.709999,35.349998,1729429096986.0,0.0
4.130012,1.844866,-7.348359,36.540001,26.32,11.69,1729429097008.0,0.0
3.799802,-9.454042,3.201597,237.649994,12.88,57.400002,1729429097026.0,0.0
-9.729217,-13.969299,-0.48335,46.41,19.18,2.52,1729429097047.0,0.0
-11.789437,-19.068403,-2.108077,-55.650002,-66.57,-42.209999,1729429097067.0,0.0
3.381058,0.153141,-15.120246,-5.04,-83.93,-95.970001,1729429097086.0,0.0
5.481956,-2.012364,-6.051448,231.559998,-64.050003,19.18,1729429097107.0,0.0
-3.761517,-21.595224,2.07697,272.720001,14.63,84.139999,1729429097127.0,0.0
-5.632704,-2.160719,-10.183852,-105.769997,2.1,-31.360001,1729429097148.0,0.0
-1.682154,-10.741381,-5.907879,-121.660004,-35.209999,9.8,1729429097166.0,0.0
-0.222532,-11.997612,-7.712067,-89.669998,-10.99,-17.85,1729429097186.0,0.0
-1.311267,-7.45125,-6.948757,-17.99,1.05,-16.379999,1729429097207.0,0.0
0.650848,-5.869594,-7.585248,-66.779999,10.78,-26.040001,1729429097226.0,0.0
0.909273,-6.228518,-8.693125,-126.699997,6.72,-20.09,1729429097253.0,0.0
0.602991,-5.56092,-9.559326,-111.510002,9.1,-20.93,1729429097266.0,0.0
1.337588,-3.132205,-7.690532,-54.529999,16.940001,-12.67,1729429097287.0,0.0
1.663012,-1.706082,-8.061419,-1.89,18.27,8.12,1729429097307.0,0.0
3.129812,-1.505085,-9.643075,-20.51,17.219999,13.3,1729429097326.0,0.0
2.957529,-4.031906,-8.267202,-8.47,25.549999,23.66,1729429097349.0,0.0
3.15374,-2.29711,-5.675776,4.62,22.4,6.86,1729429097367.0,0.0
3.515057,0.045464,-9.765109,91.910004,8.19,40.32,1729429097386.0,0.0
-5.563312,-14.462219,-0.210568,137.479996,5.25,52.849998,1729429097406.0,0.0
-11.344372,-13.545769,-2.175076,-22.540001,-35.560001,-25.34,1729429097427.0,0.0
-3.5007,5.833702,-17.371893,-152.809998,-83.860001,-79.099998,1729429097449.0,0.0
3.897908,-0.775275,-14.617754,56.490002,-55.650002,-2.38,1729429097466.0,0.0
4.522435,-3.019742,-5.446064,329.48999,-19.110001,97.300003,1729429097486.0,0.0
-8.094919,-26.601009,-3.725625,189.770004,-7.42,105.209999,1729429097507.0,0.0
-2.122434,-3.074777,-11.667403,-184.100006,-42.139999,-57.119999,1729429097526.0,0.0
0.196211,-9.607183,-6.278766,-43.959999,-39.060001,38.57,1729429097548.0,0.0
-2.897708,-9.590433,-5.249853,23.17,3.5,0.07,1729429097566.0,0.0
-3.562913,-6.991827,-7.707282,-48.93,-15.61,-4.27,1729429097586.0,0.0
-1.246661,-8.405986,-9.176475,-117.459999,-10.22,-12.74,1729429097608.0,0.0
-0.234497,-7.501499,-9.547362,-99.82,-2.73,-26.809999,1729429097626.0,0.0
-0.746561,-5.769095,-8.793623,-52.709999,2.66,-33.880001,1729429097647.0,0.0
0.701097,-4.634897,-9.896714,-52.150002,-0.07,-40.32,1729429097666.0,0.0
1.342373,-1.820938,-8.702696,-17.43,13.3,-24.08,1729429097686.0,0.0
3.07717,0.349352,-8.566305,-14.7,15.82,-6.09,1729429097707.0,0.0
3.35713,-1.086342,-6.707082,-15.26,16.870001,24.360001,1729429097726.0,0.0
1.787439,-6.453443,-6.570691,-18.83,10.64,21.49,1729429097751.0,0.0
2.787638,0.026321,-11.042876,31.43,-0.98,8.61,1729429097767.0,0.0
4.716253,-0.921237,-10.547562,127.75,12.39,43.540001,1729429097786.0,0.0
-11.739187,-14.708681,3.646662,51.939999,9.1,31.01,1729429097806.0,0.0
-13.682159,-13.4022,-6.742974,-10.22,-58.66,-72.309998,1729429097826.0,0.0
1.222732,4.524827,-16.287943,1.47,-82.949997,-67.129997,1729429097848.0,0.0
9.23151,11.47119,-12.88535,118.93,-37.099998,20.790001,1729429097867.0,0.0
-5.465207,-18.008383,1.753939,310.940002,1.82,174.860001,1729429097886.0,0.0
-6.79083,-17.25943,-10.19821,18.969999,-37.799999,-5.39,1729429097910.0,0.0
-1.115055,-7.661818,-9.348758,-91.629997,-74.760002,-18.059999,1729429097926.0,0.0
-0.741775,-9.810574,-6.486942,62.860001,-30.030001,-4.97,1729429097947.0,0.0
-5.106283,-7.037291,-4.744967,37.799999,9.38,-29.049999,1729429097967.0,0.0
-3.151347,-7.329216,-7.161718,-128.169998,-7.21,-20.860001,1729429097986.0,0.0
0.832702,-7.676175,-9.923036,-194.669998,-6.3,-30.450001,1729429098006.0,0.0
-1.698904,-5.955735,-9.260223,-119.910004,9.38,-41.720001,1729429098026.0,0.0
-0.978664,-4.24726,-10.995021,-140.139999,18.76,-40.670002,1729429098047.0,0.0
0.746561,-1.225125,-7.800602,-110.529999,36.189999,-21.35,1729429098066.0,0.0
2.158326,-1.485943,-7.65464,-3.78,34.09,19.530001,1729429098086.0,0.0
2.804388,0.0335,-6.032306,9.17,24.43,27.860001,1729429098108.0,0.0
1.634298,-6.233303,-7.152147,-45.990002,14.14,26.110001,1729429098127.0,0.0
-0.31346,-1.986043,-11.782259,-26.530001,5.46,-3.78,1729429098148.0,0.0
1.234696,-2.201397,-12.784851,129.430008,14.07,22.82,1729429098166.0,0.0
-2.694318,-8.379664,-3.35713,181.930008,31.639999,17.360001,1729429098186.0,0.0
-9.671788,-7.109076,-5.264209,122.639999,10.92,4.69,1729429098207.0,0.0
-4.924429,-3.869194,-7.513463,141.119995,-8.82,3.15,1729429098226.0,0.0
-0.409173,-12.528819,-0.957129,208.600006,-29.049999,44.450001,1729429098247.0,0.0
-2.471786,-17.764317,-9.722038,187.880005,-21.07,22.190001,1729429098266.0,0.0
-2.292324,-7.802995,-11.557333,53.130001,-10.5,-35.77,1729429098286.0,0.0
-0.16989,-7.051648,-1.01695,72.870003,13.3,-4.97,1729429098306.0,0.0
-2.371287,-9.049655,-2.785245,12.04,14.7,-21.49,1729429098327.0,0.0
-2.455036,-9.879964,-5.931807,-74.480003,-4.69,-19.460001,1729429098346.0,0.0
0.20339,-8.35813,-5.929415,-129.009995,-1.19,-40.32,1729429098366.0,0.0
0.512064,-5.941379,-8.015956,-157.639999,-6.58,-44.869999,1729429098386.0,0.0
-1.526621,-5.661418,-9.669396,-187.039993,-0.84,-40.25,1729429098406.0,0.0
-1.785046,-4.115655,-10.939985,-157.779999,15.33,-24.43,1729429098426.0,0.0
0.272782,-4.895715,-9.674182,-94.43,28.42,-6.58,1729429098447.0,0.0
0.734596,-3.151347,-9.375079,23.52,33.880001,11.2,1729429098466.0,0.0
1.485943,-1.672583,-8.650054,35.630001,37.799999,16.379999,1729429098486.0,0.0
